# IKS01A3 
 
time[us],acc_x[mg],acc_y[mg],acc_z[mg],gyro_x[mdps],gyro_y[mdps],gyro_z[mdps]
313316000,-62,839,-673,4519,641,-4198
313335000,-101,825,-682,4274,4534,1022
313354000,-77,757,-665,3450,5938,-2427
313373000,-63,752,-647,4778,4778,-12290
313392000,-87,764,-660,4656,4519,-18625
313411000,-174,770,-686,4610,8320,-20229
313430000,-267,717,-716,4000,14992,-25114
313449000,-375,655,-736,2076,22106,-41923
313468000,-392,700,-712,2748,33664,-65618
313487000,-521,751,-763,2870,49007,-80763
313506000,-603,760,-762,3404,66564,-93770
313525000,-613,770,-732,4564,88137,-121160
313544000,-652,748,-722,9725,105175,-158396
313563000,-694,869,-740,9145,125465,-182305
313582000,-565,871,-750,5541,146992,-180519
313601000,327,616,-209,3786,150137,-200366
313620000,3999,1701,2124,62671,-80259,-252961
313639000,-145,2480,-1878,72656,-81709,-186580
313658000,-622,1800,-1069,-13984,-21297,122213
313677000,117,972,25,-20534,82229,264931
313696000,16,347,-1123,-7893,47755,210732
313715000,54,173,-592,22671,-58091,66793
313734000,-112,894,-378,31618,-93526,48427
313753000,-194,882,-766,17908,-48977,103587
313772000,-82,652,-724,14778,-59206,112305
313791000,-69,683,-633,11206,-80916,92595
313810000,-140,718,-679,7603,-78931,85923
313829000,-177,748,-726,1358,-68534,90167
313848000,-197,754,-767,-3160,-58641,98229
313867000,-134,699,-737,-8977,-51358,99419
313886000,-120,719,-715,-7740,-49587,84045
313905000,-150,730,-737,-8122,-46839,70839
313924000,-178,739,-791,-6106,-42656,59801
313943000,-208,756,-841,-3114,-37099,54381
313962000,-235,768,-853,-1496,-27297,56320
313981000,-156,748,-807,-122,-21053,55435
314000000,-94,719,-736,2610,-21694,48503
314019000,-135,776,-746,6381,-19160,45282
314038000,-168,723,-763,8106,-16152,44213
314057000,-115,630,-737,9099,-16534,33435
314076000,-125,651,-761,9496,-19343,20656
314095000,-91,680,-748,10503,-20610,11862
314114000,-117,748,-772,11725,-20122,11557
314133000,-170,724,-783,13236,-15251,14000
314152000,-152,659,-771,14076,-13068,3129
314171000,-147,645,-787,14198,-12137,-12442
314190000,-131,700,-780,14351,-10015,-20549
314209000,-133,747,-802,13419,-1877,-12793
314228000,-104,695,-765,12167,3847,-6961
314247000,-82,632,-763,10839,5587,-11679
314266000,-87,596,-787,8580,5083,-20106
314285000,-71,642,-789,6061,4335,-27465
314304000,-88,705,-836,4824,5816,-25877
314323000,-128,737,-853,3389,10839,-17129
314342000,-98,713,-806,3786,13786,-18213
314361000,-95,702,-782,6412,14030,-26870
314380000,-110,720,-788,8916,16152,-29603
314399000,-114,688,-789,9236,17557,-28244
314418000,-145,629,-813,7419,19038,-28091
314437000,-176,598,-826,4580,19557,-33938
314456000,-212,593,-814,2045,19740,-44412
314475000,-298,639,-917,1908,25862,-52580
314494000,-384,710,-888,4854,30748,-63007
314513000,-497,772,-931,8045,44000,-66809
314532000,-591,737,-953,11709,63083,-70396
314551000,-627,616,-885,14717,78412,-94335
314570000,-776,585,-860,17374,95664,-133297
314589000,-799,615,-813,17969,119099,-176152
314608000,-778,625,-790,11801,144992,-206366
314627000,-389,533,-646,1206,161297,-226366
314646000,952,0,-164,-5709,151511,-293282
314665000,3999,2020,1633,106061,-364244,-188809
314684000,-353,2032,-68,20549,-90961,-129572
314703000,-625,1487,-2284,-52015,37511,142824
314722000,-51,363,-1039,-54015,4671,190045
314741000,47,64,-190,-33374,-16702,129511
314760000,-153,508,-878,-16671,-29816,27083
314779000,-235,680,-1063,-19068,-33893,40854
314798000,-131,595,-796,-18091,-30793,52396
314817000,-141,659,-753,-15358,-32381,42229
314836000,-196,662,-855,-16061,-28045,46992
314855000,-171,566,-832,-16839,-25129,41160
314874001,-139,599,-830,-16488,-25221,32152
314893000,-170,671,-854,-14946,-22412,38198
314912000,-189,656,-839,-14641,-20030,47786
314931000,-165,624,-814,-13633,-20335,46534
314950000,-138,635,-822,-11969,-24458,42213
314969000,-166,673,-843,-10488,-26015,40931
314988000,-148,670,-846,-9267,-26183,40885
315007000,-130,664,-853,-7175,-26015,42015
315026000,-149,694,-872,-5267,-23053,46274
315045000,-137,666,-859,-3679,-20748,50717
315064000,-117,639,-822,-2076,-19877,49877
315083000,-166,693,-840,-473,-15908,49740
315102000,-95,638,-791,1770,-14641,48854
315121000,-91,629,-768,3969,-16167,40992
315140000,-158,637,-812,4946,-15099,36274
315159000,-145,599,-831,3862,-14000,29603
315178000,-178,626,-859,3389,-14091,15129
315197000,-197,695,-896,3206,-12244,4122
315216000,-164,693,-901,3572,-7114,-3618
315235000,-131,670,-862,5358,-3694,-17145
315254000,-181,714,-903,6778,4000,-24656
315273000,-195,722,-873,6396,16442,-23984
315292000,-180,686,-806,6824,28244,-26732
315311000,-136,613,-730,7511,33709,-38213
315330000,-181,558,-729,4442,34748,-52412
315349001,-336,613,-768,1816,42198,-61190
315368000,-374,595,-775,-5022,51022,-66381
315387000,-318,569,-768,-7786,58106,-84763
315406000,-229,489,-636,-13877,46106,-118183
315425000,-386,724,-686,-12702,39435,-149465
315444000,-531,835,-861,-15236,53374,-157923
315463000,-630,815,-931,-18213,74167,-159450
315482000,-97,858,-856,-8061,78900,-180900
315501000,3999,1850,790,36503,-34106,-172244
315520000,596,1493,-559,44564,-48778,-52229
315539000,-346,590,-873,-70900,34503,91938
315558000,-280,861,-912,-49160,31557,86900
315577000,89,491,-222,-37312,-16458,70091
315596000,291,751,-412,-26503,-23664,61633
315615000,217,713,-591,-14793,-36274,88946
315634000,144,474,-535,-16305,-58183,90259
315653000,149,611,-543,-6534,-82351,64809
315672000,140,820,-638,-1282,-93404,69022
315691000,13,924,-858,-3450,-91160,97435
315710000,-24,919,-882,-3145,-85343,123374
315729000,-79,779,-841,-5267,-81435,134213
315748000,-74,744,-807,-4427,-79358,128229
315767000,-69,752,-825,-5083,-75618,121725
315786000,-134,742,-860,-5206,-69389,114564
315805000,-199,746,-900,-4839,-57343,104229
315824000,-209,731,-916,-7312,-43206,98000
315843000,-136,715,-868,-9801,-32671,93984
315862000,-87,697,-833,-11068,-26305,89374
315881000,-104,699,-822,-10625,-21694,81801
315900000,-115,678,-816,-9038,-18152,73343
315919000,-55,682,-780,-5877,-16687,63145
315938000,-62,728,-802,-2000,-16091,58045
315957000,-76,700,-787,-916,-14183,58106
315976000,-64,668,-763,-534,-12946,55251
315995000,-10,655,-729,381,-12442,49190
316014001,31,672,-722,2732,-16137,39038
316033000,-7,681,-754,4381,-17984,32381
316052000,-18,675,-754,5282,-17832,26900
316071000,-29,663,-765,4503,-16473,21404
316090000,35,629,-721,3755,-17496,13908
316109000,-26,710,-759,4305,-17496,7755
316128000,-60,704,-753,4137,-13419,5969
316147000,-93,690,-786,4778,-8396,-1557
316166000,-80,643,-784,3618,-3557,-12625
316185000,-29,665,-783,3236,-1175,-24854
316204000,-5,733,-813,2900,3129,-25725
316223000,-15,760,-813,4442,9297,-22259
316242000,-11,721,-826,5465,14641,-24427
316261000,-3,704,-826,6961,16702,-32183
316280000,-21,712,-829,8519,19343,-40137
316299000,-25,703,-815,9664,23022,-45145
316318000,-21,750,-820,11160,26625,-47572
316337000,-37,752,-836,12671,32030,-44137
316356000,-69,655,-834,11816,37068,-45984
316375000,-132,633,-853,12564,40625,-60351
316394000,-142,656,-838,12839,42824,-72580
316413000,-281,745,-851,16290,50900,-83083
316432000,-377,729,-806,18732,60473,-96870
316451000,-482,673,-828,20015,78106,-120564
316470000,-466,674,-835,21832,91908,-149526
316489000,-533,699,-825,22381,103664,-177114
316508000,-457,592,-721,16778,119374,-201374
316527000,-167,508,-640,11190,129923,-233694
316546000,780,1166,-532,27786,133725,-216549
316565000,2509,1085,1061,96610,-52396,-144183
316584000,-542,1639,-856,-29206,5282,39755
316603000,-461,949,-1294,-43129,60320,140488
316622000,-32,38,-664,-50793,47267,122503
316641000,301,296,-279,-33190,-5893,32992
316660000,346,678,-555,-22183,-33740,305
316679000,107,833,-784,-24488,-36274,33511
316698000,-13,830,-851,-25114,-37282,73679
316717000,102,730,-727,-23847,-41343,84167
316736002,160,732,-730,-17603,-58015,62687
316755000,17,888,-815,-8488,-65954,58320
316774000,-56,899,-824,-5679,-61389,76213
316793000,-24,779,-786,-3083,-58748,87450
316812000,-50,767,-788,442,-59832,85419
316831000,-87,724,-788,1954,-61633,82977
316850000,-38,696,-757,2778,-62717,77099
316869000,-130,771,-816,5374,-59984,72534
316888000,-99,730,-825,5282,-52900,73618
316907000,-70,670,-804,4564,-50198,72045
316926000,-84,619,-783,2473,-46396,64458
316945000,-46,630,-806,1465,-43954,52610
316964000,-42,696,-837,1587,-40076,51755
316983000,-72,707,-837,-259,-33267,55435
317002000,-51,691,-832,-244,-26045,59526
317021000,-10,634,-817,30,-24473,53587
317040000,-20,611,-816,351,-25618,38732
317059000,-22,664,-863,1312,-23740,31129
317078000,25,660,-864,2045,-20854,30580
317097000,-8,693,-889,5679,-17175,31877
317116000,-2,647,-873,7709,-12473,31740
317135000,5,637,-867,10885,-10885,23923
317154000,29,620,-872,12503,-9175,19114
317173000,31,605,-878,14274,-8076,14992
317192000,-16,591,-906,14305,-4473,11816
317211002,-34,589,-913,15969,198,8213
317230000,-46,578,-885,17007,4687,885
317249000,-44,611,-884,19450,8427,-6732
317268000,-58,587,-901,20061,13526,-9114
317287000,-115,579,-944,21770,18595,-17404
317306000,-119,557,-914,23694,21816,-30091
317325000,-177,568,-940,26473,27664,-42198
317344000,-206,509,-928,26671,35022,-54748
317363000,-294,462,-893,25725,42702,-73053
317382000,-351,460,-878,23175,51725,-93374
317401000,-416,470,-888,19541,65450,-111480
317420000,-416,496,-880,18839,75450,-139083
317439000,-440,527,-877,18076,86381,-165236
317458000,-537,488,-810,13618,96061,-201587
317477000,-540,548,-728,9175,106961,-245328
317496000,-490,668,-675,-2549,120061,-263587
317515000,643,450,-527,-12839,109465,-282809
317534000,2174,2047,-1288,138809,-79694,-264045
317553000,-597,1987,-1693,-30381,-44625,-4763
317572000,36,1118,-810,-42442,15435,143145
317591000,-31,186,-784,-42503,28244,119312
317610000,97,427,-695,-19648,-27709,43526
317629000,52,833,-817,-16381,-33801,53938
317648000,-3,593,-867,-22580,-22595,97786
317667000,33,442,-770,-21435,-34748,77022
317686000,-40,672,-854,-14870,-46946,60931
317705000,-67,701,-875,-14519,-43801,71664
317724000,-57,661,-858,-11145,-43923,71603
317743000,-71,638,-856,-6427,-45755,62137
317762000,-79,667,-882,-671,-46366,55603
317781000,-62,644,-878,2183,-44290,59328
317800000,-56,600,-853,4381,-44061,55282
317819000,-42,610,-870,5893,-44916,49007
317838000,-51,610,-868,6290,-41206,50381
317857000,-46,590,-844,5648,-38045,47648
317876000,-79,558,-883,4748,-33740,43816
317895000,-124,505,-922,3587,-27923,37664
317914000,-142,479,-929,1847,-21969,27145
317933000,-154,488,-956,595,-17526,13099
317952000,-216,538,-1018,-305,-9832,7374
317971000,-189,569,-1008,-1770,-870,6259
317990000,-173,506,-987,-4748,4320,-3755
318009000,-137,547,-1004,-6793,4091,-17328
318028000,-64,634,-969,-8656,2488,-21847
318047000,21,706,-936,-9282,-885,-20656
318066000,53,830,-936,-6839,-4030,-12091
318085000,57,792,-918,-4992,-4229,2152
318104000,146,691,-820,-992,-7282,1816
318123000,178,644,-762,5969,-16061,-12106
318142000,154,624,-826,8320,-18305,-9312
318161000,89,558,-869,5969,-14885,4076
318180000,33,462,-868,1557,-11893,8549
318199000,-4,434,-887,-2534,-11465,-1496
318218000,-69,527,-928,-4045,-7312,-7923
318237000,-71,536,-907,-6412,1007,-6366
318256000,-41,563,-901,-5358,4366,-12702
318275000,-59,687,-909,-3862,9145,-9450
318294002,-16,687,-886,-5221,12152,473
318313000,-2,637,-831,-6519,5725,-2641
318332000,-13,588,-783,-11374,-1603,-8335
318351001,91,632,-722,-14381,-10045,-17053
318370000,42,686,-705,-19129,-11374,-7038
318389000,-19,623,-697,-23633,-9923,3755
318408000,-58,525,-727,-28595,-8717,9160
318427000,-76,426,-699,-35984,-14366,5083
318446000,-42,461,-690,-39267,-23404,-8351
318465000,-59,553,-778,-39419,-30854,-18702
318484000,-82,693,-846,-36580,-32244,-15206
318503000,-88,767,-890,-30824,-22503,5709
318522000,-59,677,-899,-26229,-15145,15435
318541000,6,577,-908,-20290,-15358,6488
318560000,-41,567,-973,-12534,-17893,-11145
318579000,-91,709,-998,-8045,-12396,-10167
318598000,-44,798,-919,-2625,-1603,5770
318617000,-25,729,-885,-519,1374,14748
318636000,-93,713,-889,-183,1664,11496
318655000,-71,726,-857,2656,-992,152
318674000,-103,797,-933,7465,-656,-2900
318693000,-114,790,-1003,9862,6488,2473
318712000,-169,764,-1046,11450,18473,8641
318731000,-186,704,-1015,13374,31572,10793
318750000,-167,549,-901,12854,39282,1786
318769001,-90,415,-826,11938,34839,-16610
318788000,-269,486,-791,12839,31435,-37374
318807000,-536,478,-763,9496,37374,-46213
318826000,-575,487,-708,5099,54106,-60839
318845000,-675,333,-638,-4580,63312,-89282
318864000,-737,400,-534,-6564,67908,-152854
318883000,-539,343,-597,-14442,68473,-208580
318902000,265,199,-370,-30977,48061,-243083
318921000,3999,1614,1494,26427,-108748,-273511
318940000,-659,2134,-1929,-4656,-91114,-116534
318959000,-443,1151,-1204,-43954,-17511,65541
318978000,-467,253,-385,-36488,42778,55908
318997000,21,590,-750,-21251,4290,-29572
319016002,196,1109,-785,-5312,-26702,13114
319035000,395,859,-409,-19206,-24595,114961
319054000,215,732,-784,-26473,-39480,155664
319073000,163,612,-752,-27175,-66564,139129
319092000,16,752,-724,-26076,-80595,117251
319111000,25,901,-712,-22916,-85923,108076
319130000,-74,994,-704,-21709,-83511,121129
319149000,-232,943,-712,-23908,-79450,131664
319168000,-273,810,-695,-25541,-73938,123007
319187000,-224,819,-707,-21984,-71862,100671
319206000,-163,868,-722,-17725,-71770,88076
319225000,-162,850,-695,-17221,-69343,84702
319244000,-230,867,-682,-15282,-63297,84641
319263000,-245,893,-691,-12824,-56549,85435
319282000,-176,877,-721,-7511,-51129,80320
319301000,-156,803,-674,-809,-52381,62137
319320000,-203,800,-686,8366,-51145,45267
319339000,-235,797,-715,13190,-44839,42045
319358000,-125,782,-673,16763,-38045,43923
319377000,-97,751,-656,23328,-38137,33557
319396000,-175,748,-722,29282,-33954,21465
319415000,-191,711,-755,32290,-24900,15374
319434000,-145,666,-726,34045,-14732,9526
319453000,-71,666,-719,35938,-9450,1465
319472000,-135,696,-734,37648,-3419,-1877
319491000,-171,653,-729,38061,5083,-7725
319510000,-180,623,-712,40335,9435,-26534
319529000,-223,634,-745,39786,15755,-42030
319548005,-278,653,-781,37450,25389,-51648
319567000,-347,589,-817,30854,37770,-56595
319586000,-232,654,-739,29923,44793,-79694
319605000,-199,777,-818,30839,48839,-91877
319624000,-146,750,-837,30503,55969,-92595
319643000,-191,709,-866,25893,60702,-100106
319662000,-138,759,-855,27541,63862,-111053
319681000,-86,805,-868,25129,70106,-107190
319700000,-9,896,-864,30305,73603,-92137
319719000,-35,762,-882,28458,82320,-64778
319738000,-138,531,-891,26671,83679,-59893
319757000,-300,460,-967,27954,79694,-72931
319776000,-447,428,-1005,23908,86549,-77740
319795000,-634,421,-984,14106,95709,-84122
319814000,-702,362,-923,11221,111022,-116427
319833000,-798,362,-848,6595,121007,-162076
319852000,-636,371,-827,3862,136580,-200931
319871000,-386,370,-730,-7954,151954,-218931
319890000,3999,2106,2573,97755,-133114,-243755
319909001,600,2424,-962,71572,-158381,-177160
319928000,-875,1200,-1768,-37893,113145,157984
319947000,-62,27,-1031,-55938,106290,163358
319966000,129,59,-184,-31297,17603,47511
319985000,11,400,-1054,10061,7908,-9480
320004000,-45,618,-1178,-1022,24427,42503
320023000,80,264,-846,-3099,20259,68610
320042000,195,190,-687,-259,-1816,32656
320061000,125,433,-766,4671,-21282,10793
320080000,17,519,-802,778,-24961,21923
320099000,-17,527,-708,-5908,-29526,39328
320118000,4,492,-644,-10335,-39129,43465
320137000,-45,516,-682,-15022,-51770,41984
320156000,-43,511,-732,-22641,-59755,45877
320175000,-71,583,-771,-27251,-64641,49923
320194000,-133,592,-867,-32320,-66167,55465
320213000,-158,569,-909,-36015,-63328,60870
320232000,-116,567,-891,-39145,-64793,60824
320251000,-117,598,-893,-41343,-67068,63893
320270000,-123,632,-889,-42625,-68366,67877
320289000,-172,647,-918,-42763,-69389,69297
320308000,-155,647,-905,-42259,-69099,67190
320327000,-119,658,-910,-39832,-68396,64442
320346000,-85,709,-911,-39923,-64916,68916
320365000,-109,745,-940,-40305,-57938,79022
320384000,-87,706,-924,-42030,-49526,87022
320403000,-37,725,-903,-40030,-46183,83664
320422000,-44,764,-929,-36229,-42992,81251
320441000,-31,783,-904,-32625,-37175,83709
320460000,-8,760,-890,-30687,-30625,88213
320479000,44,744,-883,-28717,-26625,90427
320498000,64,704,-855,-26335,-26061,87877
320517000,99,663,-836,-24641,-25160,80977
320536000,89,667,-901,-23526,-21648,78122
320555000,125,643,-914,-25175,-20137,77679
320574002,134,600,-940,-27083,-19862,73465
320593000,140,591,-944,-27267,-21068,58213
320612000,107,656,-995,-24916,-15282,47007
320631000,117,727,-1014,-20305,-4015,46916
320650000,127,704,-1015,-14366,8305,50656
320669000,101,612,-1009,-8305,18671,49358
320688000,122,581,-958,-366,20641,32656
320707000,58,681,-992,10290,22687,17312
320726000,46,761,-1017,21099,28854,13526
320745000,37,794,-1001,32885,35160,11343
320764000,32,774,-941,44687,39221,3450
320783000,9,740,-905,55908,41160,-11496
320802000,-65,782,-913,66961,44519,-27419
320821000,-151,783,-902,75877,54229,-38091
320840000,-211,757,-834,83908,65297,-52091
320859000,-262,713,-822,91709,74259,-73465
320878000,-319,699,-783,99450,85038,-98824
320897000,-384,717,-746,104091,100595,-126106
320916000,-418,766,-708,107679,116396,-154015
320935000,-384,663,-616,105618,130992,-185129
320954000,-349,579,-523,102854,137587,-232320
320973000,-234,527,-370,91694,133969,-289343
320992000,-229,697,-345,72793,139526,-316702
321011000,-86,880,-276,48137,146748,-315572
321030000,1282,274,302,21984,139771,-365969
321049001,2316,475,-1716,193740,-131755,-470580
321068000,-1156,2812,-1356,26427,-170183,-94030
321087000,-682,1255,-602,-54549,72992,168534
321106000,31,359,-1103,-44656,111343,148061
321125000,429,392,-442,-41511,-4534,41251
321144000,270,742,-535,-27603,-38824,-5114
321163000,222,899,-972,-31786,-11389,49893
321182000,227,662,-811,-34885,-15664,91801
321201000,305,513,-519,-40671,-34977,90549
321220000,351,483,-523,-39709,-59496,72183
321239000,262,686,-717,-32992,-73862,64076
321258000,188,820,-718,-31816,-81786,79679
321277000,178,803,-671,-29603,-86061,96045
321296000,153,740,-664,-27923,-92015,102824
321315000,100,686,-663,-27221,-100564,99480
321334000,86,690,-694,-26748,-107816,96809
321353000,19,688,-748,-28274,-108473,100854
321372000,-4,675,-766,-32625,-104824,108778
321391000,-8,663,-799,-34106,-101419,109099
321410000,-21,604,-887,-36381,-99358,101053
321429000,-45,559,-973,-37511,-96000,88045
321448000,-84,558,-1079,-36763,-88488,80519
321467000,-64,532,-1149,-33908,-75465,74503
321486000,-86,560,-1212,-25893,-63435,65923
321505000,-107,603,-1247,-15435,-47282,62549
321524000,-66,572,-1220,-5450,-30564,61053
321543000,-71,567,-1171,4732,-16335,56198
321562000,26,537,-1062,15557,-9740,44152
321581000,1,555,-1064,25526,-5221,37175
321600000,7,458,-1002,29099,-30,32870
321619000,48,438,-935,33450,-1557,19175
321638000,-20,475,-986,35679,-2183,7404
321657000,-26,482,-979,36870,-91,-1801
321676000,-54,524,-1007,39251,1847,-9679
321695000,-109,544,-1008,41679,8137,-15435
321714001,-94,517,-980,43160,14274,-24778
321733000,-84,495,-969,42656,20213,-35770
321752000,-38,485,-957,40793,26091,-44152
321771000,7,500,-927,38015,30091,-50427
321790000,35,520,-950,35328,34549,-50458
321809000,45,517,-955,33282,37816,-49984
321828000,33,449,-972,31908,37129,-55083
321847000,-40,452,-1028,32091,35328,-63755
321866000,-119,449,-1071,31938,38366,-69358
321885000,-227,449,-999,31068,41648,-79053
321904000,-375,442,-999,31679,53923,-92977
321923000,-474,469,-977,32717,62045,-119862
321942000,-602,488,-952,34106,79022,-150778
321961000,-725,569,-953,33954,103404,-174870
321980000,-653,530,-864,29038,126244,-195694
321999000,-473,410,-734,22748,140061,-237251
322018000,-323,414,-575,16137,136183,-292488
322037000,-110,542,-568,1832,128213,-320748
322056000,3999,3999,3719,144045,-234351,-134381
322075000,153,1622,-2270,52396,-111954,-143374
322094000,-788,1082,-1274,-52290,-14824,150167
322113000,164,-121,-365,-44564,61709,182229
322132000,270,-78,-576,-60305,43725,61114
322151000,216,167,-1018,-6564,-46717,-38671
322170000,114,711,-861,-8534,-41786,-9480
322189000,156,601,-781,-23618,-8244,46778
322208000,241,336,-730,-25709,-12167,52045
322227000,230,453,-709,-21923,-37007,34687
322246000,157,599,-688,-21358,-51068,29969
322265000,135,620,-689,-21618,-57358,33343
322284000,73,678,-770,-21358,-66534,41251
322303000,39,681,-814,-22534,-74473,54106
322322000,32,629,-795,-22885,-82290,62519
322341000,22,591,-909,-21603,-88748,63755
322360000,20,568,-986,-20381,-95633,62992
322379000,-12,576,-975,-16748,-100671,57923
322398000,-51,578,-1015,-13694,-100351,54351
322417000,-72,560,-1096,-14183,-96137,56000
322436000,-101,567,-1184,-14396,-84793,64045
322455000,-86,535,-1173,-16213,-68687,73007
322474000,-57,510,-1110,-15755,-55969,74412
322493000,-51,546,-1113,-12961,-43664,73038
322512000,-38,542,-1088,-11603,-34122,74335
322531000,-96,542,-1075,-8290,-23801,75099
322550000,-104,490,-1068,-7603,-14320,74763
322569000,-64,487,-1035,-4977,-9282,70137
322588000,-76,477,-1022,-4183,-5725,70229
322607000,-44,398,-990,-3877,-1587,63404
322626000,-60,403,-1013,-1312,-351,50595
322645000,-76,455,-996,427,-687,42641
322664000,-102,495,-972,2335,3145,40900
322683000,-98,523,-980,6137,8137,38427
322702000,-39,493,-931,9267,8824,31282
322721000,-29,490,-942,12931,9450,21847
322740000,-18,494,-918,14305,8351,16198
322759000,-31,488,-932,15160,10656,12961
322778000,-21,539,-909,15740,10015,10366
322797000,41,571,-880,16732,8992,6000
322816000,51,596,-888,19587,5496,1297
322835000,12,602,-896,21541,3725,-900
322854000,-26,578,-948,24015,3893,-7603
322873000,-35,556,-908,26061,3557,-14396
322892000,-22,554,-944,26793,5053,-21206
322911000,-16,510,-961,28091,6412,-29160
322930000,-41,498,-964,29725,6061,-37374
322949000,-131,532,-1010,31496,12534,-40519
322968000,-169,504,-991,30900,23099,-40061
322987000,-181,409,-949,29145,30290,-50137
323006000,-229,335,-952,28717,30656,-74885
323025000,-300,362,-960,29404,33160,-106335
323044000,-466,522,-1034,31709,46259,-126885
323063000,-558,602,-1027,30809,68015,-134000
323082000,-404,438,-833,27740,83587,-157129
323101000,-340,338,-780,26702,85709,-205465
323120000,-374,403,-756,17755,86244,-243374
323139000,-313,430,-752,1404,93419,-257664
323158000,361,308,-662,-21816,106396,-256335
323177000,3999,2674,2073,88580,-111755,-127816
323196000,587,1982,-1630,46198,-136503,-105480
323215000,-552,800,-1037,-58778,5404,129679
323234000,-41,368,-935,-29435,44732,160916
323253000,133,120,-800,-41786,23038,108000
323272000,167,210,-766,-16396,-32900,36900
323291000,53,526,-702,-12595,-40717,20259
323310000,-41,569,-928,-18656,-33603,50687
323329000,33,539,-844,-20931,-40473,66946
323348000,30,539,-736,-23129,-52656,65557
323367000,37,519,-796,-25587,-61511,56763
323386000,-5,558,-798,-27572,-71679,51267
323405000,-55,617,-827,-30916,-71847,60870
323424000,-89,570,-877,-35587,-69633,72213
323443000,-98,531,-889,-38732,-72534,73572
323462000,-69,507,-868,-41496,-75511,70839
323481000,-96,561,-900,-41297,-76595,69709
323500000,-113,580,-927,-41862,-74595,74839
323519000,-123,553,-956,-42030,-72839,77679
323538000,-155,573,-963,-40274,-70427,77770
323557000,-89,541,-940,-37877,-70183,72351
323576000,-139,594,-1006,-31740,-67832,72091
323595000,-139,614,-1037,-27679,-60809,77511
323614000,-140,581,-1041,-22748,-56076,78702
323633000,-176,577,-1041,-17664,-49312,79801
323652000,-129,590,-1007,-10412,-45083,76320
323671000,-119,573,-1002,-3038,-40000,74458
323690000,-101,545,-1012,1419,-36473,73358
323709000,-65,494,-987,5786,-34793,64335
323728000,-94,510,-990,8717,-33312,54793
323747000,-81,518,-975,11618,-28396,52061
323766000,-82,566,-986,13648,-22091,54351
323785000,-74,574,-958,14717,-17404,54320
323804000,-88,511,-929,14015,-11755,49206
323823000,-83,516,-986,13984,-8549,34732
323842000,-62,569,-973,17038,-8274,21770
323861000,-94,668,-1012,20473,-2335,21374
323880000,-104,642,-1007,20625,7954,27816
323899000,-59,521,-982,20274,12183,24320
323918000,-46,509,-972,20396,11541,11954
323937000,-64,577,-956,20870,12793,2946
323956000,-51,644,-940,22076,16793,3160
323975000,-93,621,-937,20870,23404,6687
323994001,-76,587,-911,22549,25694,1847
324013000,-106,603,-907,23938,26900,-6961
324032000,-80,608,-903,23877,30030,-12442
324051000,-65,604,-880,25282,30961,-17633
324070000,-49,575,-883,26229,32122,-21908
324089000,-54,560,-865,26167,32061,-24610
324108000,-71,503,-897,25328,37419,-27618
324127000,-88,487,-911,24091,38015,-35618
324146000,-145,481,-911,25175,39038,-50076
324165000,-213,532,-901,26793,42931,-66213
324184000,-299,563,-903,29465,49129,-83404
324203000,-400,604,-911,34458,59129,-102839
324222000,-436,511,-879,34610,72137,-127679
324241000,-400,408,-845,32534,82061,-163114
324260000,-421,401,-793,26045,85938,-200366
324279000,-357,402,-765,17083,93206,-236595
324298000,-165,329,-662,2015,94641,-269954
324317000,767,518,-809,-8305,93206,-223526
324336000,1060,1049,-412,78015,-15221,-260015
324355000,-468,1799,-1597,36595,-93145,-105038
324374000,-149,828,-1398,-45526,11038,123832
324393000,-133,352,-925,-27053,20351,157557
324412000,100,409,-647,-19480,473,121053
324431000,165,373,-675,-9297,-27984,75221
324450000,88,359,-787,-5511,-50305,48183
324469001,-54,491,-848,-7099,-59435,46519
324488000,-20,548,-936,-12061,-65312,68305
324507000,1,566,-821,-13725,-66091,81206
324526000,-48,560,-873,-15816,-65526,87679
324545000,-43,490,-896,-19099,-64564,89893
324564000,-5,455,-879,-20534,-68412,81557
324583000,-51,482,-928,-21083,-71022,77358
324602000,-107,516,-978,-22961,-68366,82122
324621000,-86,492,-949,-25129,-63511,87740
324640000,-66,468,-969,-25618,-64870,85923
324659000,-41,443,-942,-26442,-66916,79877
324678000,-92,494,-963,-23847,-66992,73450
324697000,-117,495,-968,-22610,-63022,70717
324716001,-166,520,-991,-19343,-57450,68809
324735000,-131,520,-973,-16198,-53679,64625
324754000,-119,512,-972,-12870,-50916,58534
324773000,-135,505,-991,-9938,-45603,57175
324792000,-102,450,-939,-10458,-40366,58061
324811000,-78,430,-927,-10259,-37022,53099
324830000,-97,468,-936,-10198,-35862,47816
324849000,-77,454,-915,-9725,-35893,41114
324868000,-126,466,-946,-9709,-34458,33160
324887000,-148,466,-934,-10809,-32610,25603
324906000,-201,540,-962,-10793,-27694,17770
324925000,-259,629,-984,-9480,-18824,14702
324944000,-210,615,-994,-7877,-11083,10259
324963000,-191,599,-989,-4183,-6015,-1206
324982000,-186,608,-995,-809,-2854,-12732
325001000,-184,631,-1031,2274,4183,-16900
325020000,-116,644,-1011,4778,10167,-15786
325039000,-85,636,-1007,8824,15114,-12656
325058000,-83,616,-992,12885,19007,-11480
325077000,-99,614,-994,18015,21038,-13709
325096000,-69,577,-978,20519,23603,-13007
325115000,-49,571,-994,23358,25618,-11053
325134000,-33,542,-927,24656,23206,-8183
325153000,-62,526,-890,26045,22961,-8992
325172000,-79,489,-887,26122,22458,-15984
325191000,-117,479,-908,25603,21755,-26183
325210000,-191,497,-925,23664,24992,-29603
325229000,-235,500,-890,19816,31435,-29923
325248000,-254,449,-835,13145,36885,-35022
325267000,-327,416,-788,4977,41282,-52595
325286000,-390,361,-749,-6167,42992,-80946
325305000,-519,397,-752,-17694,49541,-112763
325324000,-557,495,-744,-32564,61770,-133771
325343000,-521,521,-732,-48687,80793,-142137
325362000,-271,399,-602,-64809,79496,-164870
325381000,250,459,-505,-69572,53465,-195648
325400000,2926,566,271,-61083,-105465,-236320
325419000,662,2622,-1371,4198,-139343,-139404
325438000,-548,1590,-1601,-16198,-8961,71694
325457000,-384,572,-958,-15328,46839,158351
325476000,29,23,-719,-36549,23022,74732
325495000,84,274,-772,15526,-18687,33679
325514000,106,485,-906,11022,-21297,54061
325533000,64,318,-689,213,-23358,86427
325552000,-10,321,-686,-2259,-36641,73404
325571000,-86,485,-775,-7709,-43740,71206
325590000,-41,535,-740,-12778,-47190,74931
325609000,-29,488,-718,-19404,-52564,72900
325628000,-65,335,-716,-29679,-55053,65175
325647000,-213,507,-722,-34473,-59007,46778
325666000,-271,656,-786,-37832,-55374,42335
325685000,-195,712,-837,-41770,-46274,51832
325704000,-162,623,-823,-44961,-41435,55282
325723000,-99,461,-727,-49770,-46213,37022
325742000,-234,670,-791,-46045,-52732,10748
325761000,-251,848,-871,-40061,-48290,9114
325780000,-210,898,-905,-41083,-36213,27435
325799000,-157,787,-874,-40335,-28595,44305
325818000,-105,651,-733,-38137,-28106,35419
325837000,-155,697,-749,-33770,-35206,12625
325856000,-168,785,-819,-29358,-36442,3374
325875000,-166,850,-850,-24244,-33480,9083
325894000,-203,818,-832,-21587,-25984,20091
325913000,-218,765,-799,-18305,-18564,25969
325932000,-187,677,-741,-18183,-17770,14274
325951000,-176,721,-750,-13053,-21465,-3862
325970000,-200,806,-776,-10198,-20030,-8015
325989000,-248,854,-807,-7374,-11923,1603
326008000,-235,752,-757,-8106,-4152,11160
326027000,-245,684,-720,-7801,412,5251
326046000,-184,695,-678,-6595,-1816,-9297
326065000,-206,779,-735,-4549,-2717,-17007
326084000,-247,812,-754,-1938,2274,-12076
326103000,-241,771,-711,-1801,7679,-9297
326122000,-218,719,-682,-1541,11801,-9419
326141000,-165,720,-661,-2366,11221,-15206
326160000,-187,773,-679,-748,10137,-19603
326179000,-186,811,-682,-458,8870,-20488
326198000,-170,802,-687,1190,7694,-21374
326217000,-176,772,-700,732,7221,-21847
326236000,-114,751,-677,-519,4916,-21557
326255000,-147,797,-656,-1435,3083,-18900
326274000,-210,780,-665,-3526,8412,-12656
326293000,-253,719,-686,-6244,12610,-13267
326312000,-308,661,-670,-10320,14732,-24748
326331000,-339,666,-662,-14167,16671,-38091
326350000,-511,807,-764,-15129,28717,-48030
326369000,-695,976,-848,-10519,49603,-49618
326388000,-633,859,-820,-11511,69450,-54717
326407000,-644,687,-782,-16656,86824,-75099
326426000,-556,692,-740,-10717,93557,-108656
326445000,-566,656,-716,-13358,106458,-128839
326464000,-373,570,-678,-21068,111496,-142793
326483000,828,763,-362,-23236,86824,-127725
326502000,796,907,-735,37832,59343,-89603
326521000,-316,1161,-1210,12809,-5923,-3129
326540000,-169,702,-786,-28213,10687,78641
326559000,-129,268,-723,-24610,29251,95847
326578000,-63,454,-487,-23862,-18946,37816
326597000,-147,670,-756,10549,-40030,-610
326616000,-288,865,-913,15175,-28305,28351
326635000,-323,678,-805,11251,-9923,63984
326654000,-247,482,-650,10809,-12213,51129
326673000,-157,517,-583,9526,-33480,18916
326692000,-136,664,-657,9404,-46580,-656
326711000,-118,796,-701,11923,-47832,4427
326730000,-142,905,-740,12992,-44229,21984
326749003,-172,887,-734,13832,-37603,38992
326768000,-215,808,-736,12290,-33221,46564
326787000,-207,710,-717,8564,-30641,43694
326806000,-178,698,-686,1862,-29923,37709
326825000,-141,738,-697,-1923,-28503,33343
326844000,-163,835,-721,-2854,-25801,35145
326863000,-161,852,-738,-5374,-19282,45267
326882000,-181,814,-744,-7725,-9435,55358
326901000,-126,684,-686,-12793,-4503,54229
326920000,-57,617,-660,-18824,-6793,41343
326939000,-72,704,-688,-20900,-11297,29358
326958000,-83,779,-704,-23633,-9969,32167
326977000,-124,819,-763,-27114,-3435,42045
326996002,-117,819,-769,-26366,1816,50610
327015000,-125,812,-739,-27175,4442,51343
327034000,-116,777,-729,-25541,4152,44809
327053000,-97,756,-703,-24198,-167,32824
327072000,-133,829,-742,-18320,-1877,23435
327091000,-150,872,-741,-14366,-213,22778
327110000,-154,901,-752,-8473,4213,26778
327129000,-92,849,-713,-2885,6381,28320
327148000,-65,795,-688,2946,2610,21862
327167000,-86,794,-703,8870,549,17160
327186000,-88,813,-700,12809,-15,14656
327205000,-67,800,-705,17083,-91,13480
327224000,-62,793,-714,19984,1328,15969
327243000,-47,780,-713,21770,3312,18137
327262000,-19,744,-685,23282,3206,15587
327281000,-33,755,-684,25648,809,8167
327300000,-52,796,-709,28824,-106,4000
327319000,-73,824,-740,30580,1038,5358
327338000,-82,803,-741,32992,2870,6854
327357000,-70,770,-737,34992,488,1633
327376000,-98,722,-770,37297,-5236,-10977
327395000,-171,728,-842,41450,-7832,-23541
327414000,-251,775,-903,47648,-3969,-32580
327433000,-281,806,-910,56809,3725,-38534
327452000,-337,761,-908,61786,13648,-45267
327471000,-343,641,-861,63832,25175,-58946
327490000,-364,574,-831,63755,31938,-83664
327509000,-531,645,-902,66198,40091,-115862
327528000,-573,623,-892,63419,56290,-135847
327547000,-561,556,-867,57038,74106,-159190
327566000,-388,488,-747,51877,84854,-186854
327585000,-382,498,-703,40015,89496,-215160
327604000,-358,581,-742,29251,91496,-230763
327623000,644,755,-566,14381,95114,-190580
327642000,1948,1121,-195,82137,-8366,-199465
327661000,-85,1362,-1258,52534,-88137,-101984
327680000,-385,505,-822,-17404,7786,87725
327699000,-296,337,-633,-31557,13969,93587
327718000,-95,259,-656,-21328,-1969,65862
327737000,-29,356,-732,-14305,-24610,28870
327756000,-165,474,-811,-8152,-42625,15343
327775000,-253,600,-927,-4839,-43633,13954
327794000,-213,651,-957,-4580,-39435,32458
327813000,-141,653,-872,-5160,-31801,49877
327832000,-37,565,-777,-8778,-35755,54977
327851000,20,530,-742,-12106,-45038,54320
327870000,1,518,-772,-16778,-51435,60274
327889000,-59,606,-771,-19526,-55618,72045
327908000,-123,642,-776,-23236,-56427,87435
327927000,-142,580,-767,-27038,-55877,100366
327946000,-116,472,-707,-32534,-60442,101618
327965000,-160,425,-691,-40992,-69786,89526
327984000,-252,520,-722,-44900,-77114,69541
328003000,-333,628,-781,-51526,-78061,56015
328022000,-350,731,-850,-52870,-71236,51832
328041000,-321,769,-841,-57160,-61969,55603
328060000,-273,735,-811,-58748,-51679,56916
328079000,-255,766,-827,-55374,-44885,48564
328098000,-255,813,-831,-49786,-42824,41328
328117000,-240,844,-850,-42992,-36503,43572
328136003,-200,814,-824,-36870,-30687,49267
328155000,-148,770,-816,-31709,-30900,51648
328174000,-172,753,-798,-25648,-33877,46900
328193000,-154,765,-762,-18564,-37770,39129
328212000,-177,768,-816,-13526,-36946,36916
328231000,-208,807,-830,-7801,-32793,39267
328250000,-178,789,-791,-2625,-30534,42564
328269000,-185,783,-792,1404,-24641,46778
328288000,-179,793,-762,4152,-20427,49465
328307000,-128,741,-724,5297,-17099,47007
328326000,-116,737,-742,7190,-16045,40106
328345000,-121,801,-742,10549,-15954,34244
328364000,-111,805,-747,11129,-14061,34091
328383000,-64,733,-740,8244,-9755,36076
328402000,-30,694,-729,3877,-8167,36045
328421000,-104,725,-776,3038,-6320,32442
328440000,-198,741,-835,2412,-2641,27541
328459000,-270,772,-927,5465,5389,25297
328478000,-309,758,-944,10076,14916,26687
328497000,-291,719,-903,18839,22381,21496
328516000,-341,700,-853,29343,24854,7450
328535000,-352,619,-814,37282,28564,-9801
328554000,-353,574,-818,43343,26580,-33694
328573000,-404,610,-805,48290,29068,-50870
328592000,-421,628,-803,50137,38274,-58763
328611000,-442,647,-811,51526,48137,-66091
328630000,-480,648,-806,53251,54320,-81114
328649000,-517,642,-851,53618,62244,-101251
328668000,-550,627,-842,56015,68519,-126732
328687000,-581,581,-823,55786,78396,-156824
328706000,-606,592,-788,50641,89022,-191022
328725000,-618,559,-723,39832,105114,-220045
328744000,-558,574,-654,23450,116015,-244748
328763000,-297,496,-576,8488,114045,-268122
328782000,3599,1541,383,7480,14625,-198152
328801000,1434,2826,122,84183,-68106,-179267
328820000,-430,797,-1398,4167,4076,38503
328839000,-400,973,-998,-27541,46091,149908
328858000,-139,347,-673,-21725,34946,143526
328877000,-7,193,-490,-24549,-14183,82916
328896000,-87,369,-715,595,-37511,32992
328915000,-180,570,-865,-2641,-34580,39465
328934000,-142,561,-860,-9511,-34366,50671
328953000,-183,601,-881,-9053,-35847,58045
328972000,-171,585,-840,-12916,-28503,71007
328991000,-77,471,-788,-17068,-30793,68412
329010000,-90,460,-824,-18488,-40274,53206
329029000,-142,530,-857,-20351,-45038,44564
329048000,-185,605,-915,-21129,-42885,45465
329067000,-214,634,-958,-23664,-38412,56274
329086000,-207,701,-968,-21648,-33908,66259
329105000,-125,631,-884,-23129,-32183,72549
329124000,-98,591,-835,-22534,-35709,68519
329143000,-130,610,-820,-18931,-35725,56625
329162000,-115,626,-873,-18656,-36106,50641
329181000,-125,614,-896,-16900,-34290,52167
329200000,-96,594,-888,-17267,-32717,56885
329219000,-118,579,-859,-16961,-31175,58473
329238000,-138,594,-860,-15557,-30091,54534
329257000,-152,606,-899,-11618,-29068,49221
329276001,-146,609,-919,-10854,-26335,46931
329295000,-78,577,-884,-8931,-25358,44748
329314000,-106,645,-911,-6946,-24870,41374
329333000,-163,683,-929,-2305,-21053,41954
329352000,-172,657,-909,-534,-17847,40488
329371000,-166,641,-919,3312,-15755,32748
329390000,-183,665,-919,6854,-13007,24625
329409000,-160,691,-911,9984,-9358,21404
329428000,-201,706,-927,13190,-2748,22580
329447000,-201,681,-888,15893,2793,23282
329466000,-191,654,-874,19160,5694,16717
329485000,-224,670,-903,22885,8229,8519
329504000,-221,664,-903,28045,10259,610
329523000,-252,644,-914,32580,12183,-6396
329542000,-258,621,-893,37221,16900,-11877
329561000,-250,603,-870,42580,18625,-22625
329580000,-288,573,-883,45954,21328,-33893
329599000,-302,526,-891,47343,25709,-46335
329618000,-316,484,-889,46656,33190,-61465
329637000,-279,461,-874,43709,39236,-73557
329656000,-255,484,-888,40793,48061,-84015
329675000,-218,499,-888,35908,52854,-91923
329694000,-243,475,-925,32687,59435,-97572
329713000,-298,440,-915,28152,65725,-108580
329732000,-410,385,-898,22778,71282,-128641
329751000,-551,413,-935,22396,74519,-162687
329770000,-358,430,-841,13923,80671,-179038
329789000,-339,541,-825,9801,87465,-199938
329808000,-214,600,-735,4305,84763,-218992
329827000,-401,542,-825,1786,86946,-236992
329846000,-261,513,-700,-10366,87114,-244610
329865000,507,716,-605,-20122,79404,-213251
329884000,1789,1828,-173,41496,9267,-156595
329903000,2,936,-1332,15603,-21068,-23572
329922000,-394,916,-1058,-17938,15770,79419
329941000,-113,106,-885,-15664,35893,95297
329960000,24,201,-624,-23236,-3709,53648
329979000,25,303,-803,-106,-25923,7664
329998000,-70,383,-868,-2427,-36717,2442
330017000,-112,451,-923,-10473,-37404,18656
330036000,-123,464,-937,-16580,-32061,35847
330055000,-105,454,-905,-21984,-35160,43770
330074000,-86,447,-911,-25511,-40198,43007
330093000,-142,485,-922,-26656,-43083,40473
330112000,-192,471,-941,-28290,-41755,43557
330131000,-186,474,-949,-31236,-37160,53633
330150000,-199,441,-939,-32824,-36076,57175
330169000,-167,411,-880,-34137,-38030,52305
330188000,-210,428,-929,-34412,-37389,47450
330207000,-254,478,-966,-35679,-33862,47969
330226000,-230,459,-929,-34473,-31190,45770
330245000,-243,449,-935,-33465,-29954,38946
330264000,-239,484,-959,-32702,-26625,36061
330283000,-240,520,-966,-30137,-22885,38717
330302000,-229,520,-969,-30564,-15328,49526
330321000,-263,545,-970,-29679,-5984,59541
330340000,-195,500,-928,-25954,-3068,60000
330359000,-125,444,-861,-22824,-8198,42641
330378000,-162,489,-875,-19022,-15847,18854
330397000,-167,595,-908,-13847,-19496,10351
330416001,-191,674,-939,-8961,-15954,13343
330435000,-216,685,-942,-4122,-8259,26946
330454000,-194,620,-899,-2091,-2778,35969
330473000,-104,533,-831,198,-3557,29770
330492000,-111,542,-826,854,-11480,13664
330511000,-149,636,-883,3267,-14045,6641
330530000,-157,678,-893,4931,-12000,11954
330549000,-156,681,-896,6534,-7145,19587
330568000,-106,643,-866,7480,-5374,23923
330587000,-76,593,-829,8854,-6580,19480
330606000,-118,625,-881,9725,-7923,12778
330625000,-150,648,-917,9618,-5465,17480
330644000,-171,657,-934,8916,-870,25435
330663000,-206,644,-935,7908,1221,30839
330682000,-173,607,-916,9618,1801,28167
330701000,-156,554,-901,11465,-610,18625
330720000,-171,555,-936,13954,-1465,7633
330739000,-227,552,-964,15358,1053,-274
330758000,-243,510,-982,16076,6244,-8244
330777000,-297,499,-1023,16687,13908,-17572
330796000,-332,503,-1014,18961,23526,-25755
330815000,-350,493,-981,20916,33862,-36625
330834000,-420,490,-947,23099,43389,-51908
330853000,-499,522,-943,26030,53908,-75328
330872000,-578,575,-893,28488,65083,-99114
330891000,-574,551,-873,26213,80595,-120946
330910000,-493,459,-791,22244,90916,-145862
330929000,-397,385,-645,12763,87099,-184045
330948000,-395,467,-607,6702,81648,-226015
330967000,-544,671,-687,-3221,86091,-241786
330986000,-333,688,-596,-23068,96335,-233893
331005000,802,876,-327,-34580,92015,-196412
331024000,1952,1853,532,15648,-1633,-190839
331043000,-206,1291,-1555,23099,-33221,1404
331062000,-356,1167,-1043,-33450,1664,123664
331081000,-293,349,-836,-24259,21938,150183
331100000,-25,338,-459,-38671,-37358,102183
331119000,-145,346,-619,-4152,-60061,36916
331138000,-219,588,-853,3969,-64427,35374
331157000,-177,571,-818,-8488,-65160,49709
331176000,-179,606,-840,-2931,-68473,47877
331195000,-198,662,-860,-4870,-66290,58717
331214000,-156,580,-824,-6396,-64091,64488
331233000,-138,567,-814,-6717,-68412,57511
331252000,-146,615,-848,-5282,-70488,53053
331271000,-132,632,-862,-4946,-69099,56244
331290000,-196,634,-919,-4732,-63053,62305
331309000,-199,631,-910,-5984,-56244,66748
331328000,-139,565,-871,-6885,-52167,65435
331347000,-146,575,-877,-8030,-48824,61496
331366000,-151,543,-895,-8931,-43251,56519
331385000,-128,550,-892,-9770,-40900,50152
331404000,-188,601,-937,-9358,-33969,50412
331423000,-176,563,-913,-10396,-26961,52213
331442000,-169,550,-897,-10290,-22488,48671
331461000,-175,539,-892,-8610,-19770,44748
331480000,-176,542,-884,-9374,-17648,40213
331499000,-184,593,-905,-7832,-16152,36656
331518000,-178,633,-885,-6916,-13374,37480
331537000,-196,626,-893,-6427,-7022,41847
331556001,-156,611,-862,-5648,-5587,43496
331575000,-104,596,-814,-3755,-9328,33343
331594000,-160,655,-855,76,-12992,21526
331613000,-189,699,-907,3114,-10778,21053
331632000,-197,700,-899,4091,-3557,25587
331651000,-163,715,-885,6198,1038,30061
331670000,-104,678,-832,6259,4137,30183
331689000,-84,641,-820,7862,4519,21893
331708000,-64,627,-836,8351,1847,12763
331727000,-62,651,-859,10091,1877,7740
331746000,-99,679,-899,11389,5328,9145
331765000,-107,629,-907,12045,11038,11648
331784000,-121,589,-932,13496,13603,7770
331803000,-114,557,-951,14396,14824,534
331822000,-137,573,-964,16137,16900,-7435
331841000,-207,615,-1014,17938,23068,-11633
331860000,-229,621,-1003,20916,31740,-11511
331879000,-256,590,-995,23801,38534,-15877
331898000,-336,560,-982,28122,45526,-27022
331917000,-446,501,-961,29648,52931,-42778
331936000,-649,498,-992,31175,65145,-68030
331955000,-697,475,-950,31832,75572,-104488
331974000,-761,478,-897,27984,89618,-137893
331993000,-733,523,-799,24641,108946,-173145
332012000,-682,589,-712,17190,121877,-200305
332031000,-592,534,-650,3603,133267,-220702
332050000,-344,602,-493,-11526,135175,-233160
332069000,746,750,-212,-14152,112351,-218793
332088000,1417,1756,-241,45893,23984,-226000
332107000,-221,1243,-1271,7938,-24916,-19496
332126000,-355,1009,-975,-53725,57221,129709
332145000,-233,342,-965,-33145,61083,150167
332164000,199,204,-288,-55465,-10977,92870
332183000,26,288,-528,-16244,-49847,22778
332202000,-166,552,-877,-76,-56580,5664
332221000,-171,598,-950,-15267,-52335,40503
332240000,-153,557,-842,-13694,-52061,52641
332259000,-148,559,-836,-14641,-53648,56396
332278000,-139,494,-843,-15404,-55648,54000
332297000,-151,491,-869,-15801,-59053,46763
332316000,-139,540,-883,-15801,-60687,44809
332335000,-132,548,-910,-15618,-59496,49480
332354000,-196,562,-930,-15877,-55419,55725
332373000,-176,502,-921,-16106,-53038,57221
332392000,-179,487,-922,-15908,-52106,51664
332411000,-176,523,-951,-15358,-49801,48122
332430000,-158,534,-955,-14137,-47801,47816
332449000,-199,549,-982,-12656,-43832,49984
332468000,-227,548,-999,-10564,-38610,49954
332487000,-189,517,-977,-8229,-35419,45297
332506000,-180,517,-991,-4900,-33297,41160
332525000,-174,496,-966,-3786,-31007,37419
332544000,-155,510,-946,-183,-30122,30916
332563000,-204,557,-986,4656,-26076,28305
332582000,-173,549,-969,6931,-20320,31099
332601000,-164,515,-951,10458,-16793,28549
332620000,-145,495,-913,12152,-16488,23938
332639000,-156,499,-922,14839,-15633,18122
332658000,-135,504,-916,16244,-16335,12549
332677000,-124,493,-938,16198,-16854,10320
332696003,-114,452,-979,16854,-17145,6106
332715000,-135,435,-1021,17206,-16412,580
332734000,-150,462,-1081,19740,-11206,-3251
332753000,-150,454,-1088,21297,-4091,-4916
332772000,-139,466,-1092,23465,870,-6717
332791000,-105,479,-1012,24977,7908,-5572
332810000,-101,470,-991,26137,14396,-3465
332829000,-92,446,-972,26564,16992,-3267
332848000,-88,420,-944,24503,15221,-6488
332867000,-112,419,-975,24015,12885,-9435
332886000,-147,415,-974,22732,12671,-9160
332905000,-191,388,-969,21511,13190,-9984
332924000,-258,377,-981,21908,13694,-16488
332943000,-313,335,-993,21526,13893,-28274
332962000,-411,319,-1048,21389,15954,-46580
332981000,-535,359,-1116,24183,24519,-65847
333000000,-582,383,-1106,26824,34625,-83801
333019000,-649,362,-1091,30320,50717,-105419
333038000,-778,391,-1097,33083,65969,-131206
333057000,-837,250,-980,29847,79083,-165435
333076000,-792,352,-853,23648,86335,-216442
333095000,-546,499,-714,14152,85893,-242946
333114001,-412,572,-658,2625,92335,-255908
333133000,336,693,-382,-2687,69129,-256351
333152000,2503,724,-278,77053,-63175,-259374
333171000,-266,1313,-1819,54290,-57450,-67114
333190000,-339,767,-906,-57099,3389,116137
333209000,-302,243,-970,-40305,8488,146824
333228000,-31,158,-579,-58305,-30198,85068
333247000,-273,214,-817,-31053,-68412,35450
333266000,-289,492,-1010,-21893,-51786,33389
333285000,-260,518,-1039,-36000,-42885,71068
333304000,-270,462,-994,-31862,-42259,72625
333323000,-302,474,-999,-33633,-42305,76625
333342000,-276,375,-939,-36106,-43862,69984
333361000,-259,377,-916,-37419,-49022,56534
333380000,-257,460,-978,-36442,-50183,55603
333399000,-271,505,-1001,-35129,-44519,65755
333418000,-320,481,-979,-33709,-38320,77343
333437000,-286,454,-933,-32748,-34351,81572
333456000,-261,427,-900,-30290,-34183,74931
333475001,-236,419,-877,-27633,-37862,63496
333494000,-261,443,-876,-25251,-39480,57038
333513000,-301,459,-861,-22458,-38045,53404
333532000,-293,476,-826,-22916,-36580,52488
333551000,-300,486,-845,-22045,-33129,52824
333570000,-229,491,-820,-20900,-32778,51435
333589000,-184,503,-804,-20854,-35099,48916
333608000,-198,597,-846,-18458,-35862,46351
333627000,-186,632,-858,-16519,-35129,47923
333646000,-140,647,-872,-14885,-36687,47633
333665000,-122,656,-882,-11450,-38244,46137
333684000,-83,686,-897,-7755,-39908,46045
333703000,-152,716,-957,-3862,-38213,50213
333722000,-124,718,-964,-458,-35022,57282
333741000,-140,677,-971,3847,-31923,61511
333760000,-189,656,-1001,8091,-27694,62458
333779000,-202,641,-1012,12610,-20778,65068
333798000,-201,599,-990,16809,-13908,66839
333817000,-201,550,-962,19847,-8854,63160
333836000,-180,528,-946,22458,-5465,58106
333855000,-229,493,-935,23022,-839,53587
333874000,-232,495,-920,24381,3541,46854
333893000,-249,530,-916,25404,8458,39984
333912000,-225,528,-917,26396,12793,34839
333931000,-195,499,-868,27938,12259,22213
333950000,-263,516,-903,30167,11038,5847
333969000,-341,546,-950,32259,15389,-5419
333988000,-356,544,-946,31893,22076,-12961
334007000,-349,534,-934,32351,29221,-23862
334026000,-337,526,-886,32076,32305,-37755
334045000,-356,538,-899,32122,37893,-53435
334064000,-385,546,-855,30977,43099,-66076
334083000,-468,571,-841,30580,53465,-81725
334102000,-535,620,-853,30916,63129,-98656
334121000,-573,602,-838,30793,76824,-118931
334140000,-398,530,-705,25496,76458,-150137
334159000,-493,673,-741,31511,71633,-189419
334178000,-482,719,-742,26259,76000,-213206
334197000,-414,660,-716,16137,82259,-217771
334216000,243,847,-757,-3847,87862,-162458
334235000,3406,218,763,49236,-50213,-157022
334254000,-235,1987,-1286,64656,-153755,-179725
334273000,-354,883,-1540,-28946,11419,74274
334292000,-197,357,-977,-31587,28335,126931
334311000,58,16,-360,-42702,-5541,48702
334330000,29,345,-526,-13465,-51053,17175
334349000,-234,326,-992,-8763,-45053,-900
334368000,-234,372,-915,-20519,-43618,20519
334387000,-200,338,-852,-21480,-43954,15419
334406000,-277,477,-967,-20549,-42229,9282
334425000,-257,541,-1052,-22229,-34015,20977
334444000,-212,566,-1005,-22870,-21816,37175
334463000,-159,460,-953,-22717,-15511,42335
334482000,-141,445,-902,-22045,-17755,33267
334501000,-196,490,-931,-18458,-20656,23022
334520000,-255,537,-951,-15374,-16091,22458
334539000,-268,540,-956,-14427,-9648,27770
334558000,-239,532,-915,-13312,-4564,31389
334577000,-198,523,-874,-12290,-3862,31083
334596000,-144,513,-826,-11893,-5908,27282
334615000,-139,541,-837,-11374,-8458,23312
334634000,-139,523,-837,-12793,-12748,21297
334653000,-159,542,-851,-15145,-15129,21633
334672000,-127,548,-850,-18870,-17206,22183
334691000,-125,609,-844,-19374,-19480,22778
334710000,-108,628,-866,-21221,-16610,28381
334729000,-62,574,-875,-23862,-17816,31511
334748000,-85,564,-896,-25603,-21068,26916
334767000,-92,575,-901,-26351,-24396,21419
334786000,-149,646,-959,-26106,-22595,20549
334805000,-208,674,-1009,-23893,-13465,26992
334824000,-156,643,-959,-25419,-5450,35312
334843000,-125,590,-945,-21587,-2580,31541
334862000,-165,606,-945,-17633,-3389,22610
334881000,-245,628,-973,-13664,-1404,17984
334900000,-308,682,-1000,-6503,6778,18274
334919000,-294,650,-969,-2488,13786,21755
334938000,-264,609,-941,3099,17358,19404
334957000,-341,636,-934,12442,19893,9374
334976001,-389,667,-911,20702,21832,1114
334995000,-367,603,-894,27557,26610,-7190
335014000,-355,588,-864,34213,28122,-22030
335033000,-361,559,-781,36824,30076,-37954
335052000,-388,588,-823,37755,37007,-52167
335071000,-401,568,-810,37267,40320,-64458
335090000,-543,608,-850,37694,50198,-77755
335109000,-567,606,-864,37160,61343,-87938
335128000,-547,498,-767,33465,65007,-110396
335147000,-513,456,-746,29419,68290,-147145
335166000,-470,445,-750,25801,66778,-188824
335185000,-368,537,-730,20870,58290,-217725
335204000,-478,592,-858,9312,72305,-213786
335223000,-242,450,-806,-6641,84717,-201801
335242000,728,439,-549,-17877,58335,-198396
335261000,1968,908,64,25587,-83068,-202656
335280000,8,1598,-1299,37648,-64030,-59969
335299000,-386,972,-971,-22076,16000,76778
335318000,-332,135,-1647,-26488,61404,85480
335337000,42,287,173,-26870,-66778,44931
335356000,-110,316,-844,-1832,-17083,26885
335375000,-221,410,-1213,-1938,-2167,45725
335394000,-217,380,-831,1022,-28488,39145
335413000,-231,439,-865,4549,-34259,34610
335432000,-196,428,-968,5770,-28793,42320
335451000,-163,388,-929,6213,-31893,48488
335470000,-185,359,-870,4320,-38656,48381
335489000,-263,387,-885,2793,-41038,48091
335508000,-312,435,-914,854,-39816,49053
335527000,-287,407,-921,-580,-38320,50045
335546000,-250,397,-880,-1267,-39572,45404
335565000,-259,400,-886,-1236,-40259,39740
335584000,-292,404,-897,-1603,-38625,35801
335603000,-261,390,-880,-3648,-36488,31022
335622000,-272,444,-901,-2656,-33938,29526
335641000,-241,442,-899,-4427,-30931,34030
335660000,-235,433,-900,-5312,-27633,38503
335679000,-248,430,-921,-6977,-27587,44106
335698000,-249,429,-944,-7618,-28427,47282
335717000,-251,425,-931,-7923,-31572,49389
335736000,-200,429,-895,-7908,-36717,50977
335755000,-190,433,-877,-7938,-43282,51190
335774000,-233,482,-885,-5389,-47526,50763
335793000,-289,509,-907,-4595,-48198,52351
335812000,-334,513,-954,-2885,-45725,52503
335831000,-308,468,-957,-4274,-45206,50351
335850000,-311,427,-1021,-2320,-45114,44015
335869001,-392,465,-1053,503,-41908,34809
335888000,-436,541,-1039,7068,-31755,28427
335907000,-388,486,-1039,10885,-20610,26534
335926000,-369,436,-1055,14748,-11312,21190
335945000,-370,399,-1023,17343,-7664,9557
335964000,-465,431,-1063,20473,-488,-1114
335983000,-476,459,-1058,22610,9114,-4061
336002000,-538,464,-1063,25374,22641,-5053
336021000,-488,453,-1036,27648,31572,-6992
336040000,-446,421,-963,28778,31877,-14671
336059000,-433,392,-937,29572,32335,-27740
336078000,-452,353,-932,28259,29908,-43541
336097000,-479,342,-945,26183,36076,-54335
336116000,-531,334,-955,21099,41679,-63251
336135000,-528,300,-928,14198,48580,-73801
336154000,-528,265,-923,6244,52763,-87251
336173000,-527,268,-919,-1389,58213,-101312
336192000,-590,332,-929,-7251,65801,-116519
336211000,-603,367,-892,-13053,71893,-130427
336230000,-668,437,-926,-17251,86351,-140488
336249000,-556,421,-856,-26198,101786,-150320
336268000,-588,387,-795,-33480,105282,-167343
336287000,-488,372,-684,-41832,103129,-200183
336306000,-413,390,-652,-49511,96290,-231938
336325000,711,657,-383,-53816,70610,-242167
336344000,1874,1880,75,-15816,6122,-219190
336363001,-273,1270,-1371,11435,-54748,-32732
336382000,-745,1077,-1390,-35022,51557,116549
336401000,-283,67,-393,-25938,-1068,151664
336420000,157,3,222,-50793,641,81923
336439000,-111,285,-1276,-11145,-8061,21969
336458000,-233,385,-1079,1022,-59587,17022
336477000,-259,447,-686,-15053,-43847,52946
336496000,-288,354,-918,-18534,-25786,58458
336515000,-214,388,-957,-21251,-42870,52778
336534000,-168,408,-797,-21190,-53328,52977
336553000,-201,446,-856,-20671,-49541,53175
336572000,-246,492,-965,-19389,-49526,53709
336591000,-252,493,-910,-19358,-49984,59801
336610000,-220,499,-888,-19374,-46320,66564
336629000,-223,500,-936,-18351,-44106,72580
336648000,-210,496,-941,-15770,-43877,77007
336667000,-210,498,-923,-13251,-43755,77282
336686000,-212,488,-962,-11221,-43007,74305
336705000,-226,469,-964,-9129,-44305,69175
336724000,-225,477,-992,-10061,-41206,70717
336743000,-259,523,-1000,-7832,-35450,73755
336762000,-240,500,-969,-7557,-31282,77786
336781000,-218,491,-967,-6442,-26885,77618
336800000,-187,441,-914,-5740,-27435,69801
336819000,-187,470,-913,-3664,-29175,56916
336838000,-280,525,-971,366,-23129,51129
336857000,-272,535,-969,1190,-15541,52351
336876000,-278,527,-990,6259,-7343,48259
336895000,-286,481,-986,10229,-4458,39435
336914000,-375,498,-1041,15312,1938,32183
336933000,-372,500,-1046,22213,10290,25038
336952000,-353,515,-1039,28671,15450,18061
336971000,-342,535,-1024,39053,19526,11221
336990000,-321,549,-1017,46885,22671,4748
337009000,-287,552,-998,53007,24564,-152
337028000,-263,490,-929,57984,24717,-7465
337047000,-250,449,-908,60122,25587,-17251
337066000,-255,467,-939,61664,26671,-26183
337085000,-169,447,-901,59068,23801,-29038
337104000,-193,420,-893,56641,27694,-34335
337123000,-179,386,-890,52076,28335,-40595
337142000,-241,402,-921,46854,28091,-47404
337161000,-240,380,-903,40549,33175,-52580
337180000,-276,331,-898,34122,34839,-64580
337199000,-387,315,-902,26244,38595,-79725
337218000,-466,297,-884,16564,46320,-96045
337237000,-572,291,-885,6656,53312,-122106
337256000,-589,366,-923,-961,62931,-150717
337275000,-534,346,-757,-14274,64961,-177053
337294000,-473,339,-748,-23541,76229,-201419
337313000,-357,291,-654,-36885,70030,-227648
337332000,-226,341,-597,-50137,55175,-249328
337351000,470,426,-518,-55862,24061,-254106
337370000,3065,822,30,23694,-115328,-289908
337389000,-554,2427,-1760,80335,-137709,-94580
337408000,-683,735,-1641,-39862,73053,152610
337427000,-447,318,-1721,-29709,63603,165480
337446000,256,163,-234,-36549,-31908,123496
337465000,82,283,-268,-17954,-46137,59160
337484000,-218,409,-1173,-7557,-50961,53633
337503000,-140,404,-921,-23419,-62396,75603
337522000,-133,415,-792,-24244,-64381,78625
337541000,-143,518,-885,-26870,-65175,79908
337560000,-148,559,-938,-28992,-71755,81801
337579000,-198,548,-878,-28320,-72396,80305
337598000,-256,567,-921,-27648,-65816,79068
337617001,-258,569,-964,-26488,-60961,80748
337636000,-262,574,-954,-24549,-55557,84000
337655000,-273,595,-947,-22305,-47541,88030
337674000,-219,522,-926,-21236,-43419,88946
337693000,-188,509,-882,-18992,-46488,79175
337712000,-227,552,-930,-16213,-47358,69954
337731000,-216,590,-948,-13755,-44580,68870
337750000,-192,570,-959,-12488,-39755,71221
337769000,-191,544,-950,-11725,-36213,73954
337788000,-148,509,-908,-10274,-34656,69419
337807000,-164,489,-909,-8748,-35358,60030
337826000,-129,519,-913,-5893,-34351,52748
337845000,-120,528,-941,-3908,-31954,51450
337864000,-139,505,-968,-2717,-26656,51984
337883000,-117,478,-954,-1374,-24625,47603
337902000,-140,484,-971,-45,-21984,38625
337921000,-131,500,-997,2122,-17022,32610
337940000,-139,551,-1033,5358,-9068,29893
337959000,-127,537,-1029,7297,0,30259
337978000,-127,504,-1002,10091,7572,26519
337997000,-124,485,-1000,11083,12396,19221
338016000,-146,525,-1019,13221,17847,12778
338035000,-146,570,-1020,15801,24274,11282
338054000,-117,542,-1016,18000,26091,11526
338073000,-158,544,-1035,20503,27618,9572
338092000,-235,568,-1023,23755,30748,4442
338111000,-247,558,-957,28687,33801,-4916
338130000,-229,514,-953,35160,36183,-16916
338149000,-214,491,-917,40687,38992,-27572
338168000,-226,466,-911,45328,41694,-36931
338187000,-268,420,-907,46641,44091,-47190
338206000,-331,375,-928,45603,47358,-61725
338225000,-420,376,-972,44427,50656,-82534
338244000,-476,375,-979,42778,55725,-106702
338263000,-489,422,-969,39801,62076,-132412
338282000,-576,486,-969,36427,72839,-154458
338301000,-601,524,-969,31694,84091,-178213
338358000,-431,497,-725,2595,104671,-241725
338377000,-64,430,-585,-12412,107557,-252458
338396000,1302,999,-266,-6229,72305,-223083
338415000,958,2653,-1021,71358,-44198,-224931
338434000,-875,924,-1774,34534,-40259,-23145
338453000,-358,545,-793,-63801,104305,136458
338472000,17,-37,-1091,-65984,132229,117740
338491000,335,225,-566,-79129,-23160,61312
338510000,92,301,-334,-22351,-54625,-14091
338529000,-122,522,-899,-17679,-38442,-9709
338548000,-87,506,-998,-31511,-45297,27358
338567000,-131,504,-1077,-32152,-25557,58992
338586000,-127,426,-1018,-31557,-40366,56763
338605000,-141,423,-934,-27358,-51923,49206
338624000,-190,435,-1008,-25251,-48106,51587
338643000,-159,430,-1015,-22778,-46122,53343
338662000,-149,436,-986,-17755,-49251,52916
338681000,-194,431,-978,-13694,-45267,54900
338700000,-210,420,-1011,-10366,-41725,56106
338719000,-179,362,-984,-8793,-41618,53770
338738000,-207,349,-969,-7419,-42152,48244
338757000,-198,360,-966,-6076,-41007,43664
338776000,-207,372,-981,-5832,-40320,41297
338795000,-216,397,-975,-4030,-37389,40977
338814000,-199,395,-936,-3404,-35908,40473
338833000,-183,399,-924,-2366,-35435,36778
338852000,-152,402,-917,-2000,-36488,33694
338871000,-177,422,-937,-1175,-36106,32045
338890000,-142,442,-955,-1160,-34137,34671
338909000,-115,466,-908,-717,-32076,37465
338928000,-155,481,-991,534,-27755,43206
338947000,-157,467,-988,625,-26595,48259
338966000,-157,457,-973,1374,-27389,47847
338985000,-165,476,-1000,1908,-28213,48549
339004000,-195,472,-1027,2000,-28320,50580
339023000,-191,468,-1000,2076,-30320,50748
339042000,-212,478,-1012,3145,-32244,48519
339061000,-224,489,-1010,5618,-30824,46885
339080000,-212,477,-997,7190,-29206,46167
339099000,-183,445,-996,10427,-27709,41587
339118000,-169,443,-994,13969,-26198,36977
339137000,-214,450,-1040,17053,-20503,36656
339156000,-219,420,-1013,19740,-13557,37251
339175000,-184,356,-1009,20687,-10793,31374
339194000,-189,357,-1029,23175,-11908,21511
339213000,-226,374,-1061,24396,-10870,15770
339232000,-295,388,-1102,24580,-6030,12473
339251000,-324,405,-1105,24000,580,9160
339270000,-326,403,-1080,24900,7206,3282
339289000,-320,407,-1057,26213,12106,-5068
339308000,-325,420,-1034,27358,16458,-13206
339327000,-352,429,-1026,28809,20610,-20503
339346000,-347,417,-989,29175,23954,-27770
339365000,-395,420,-994,31312,28000,-37908
339384000,-417,408,-970,32167,31053,-46641
339403000,-450,406,-987,35984,37190,-60091
339422000,-498,346,-961,37480,40793,-80381
339441000,-562,259,-1007,37496,49297,-103938
339460000,-512,198,-962,33114,56687,-126320
339479000,-531,151,-986,24992,66687,-147083
339498000,-478,118,-921,16778,71923,-176793
339517000,-503,112,-907,6580,73954,-209374
339536001,-557,138,-891,-7114,78656,-239725
339555000,-457,139,-770,-24320,81511,-270351
339574000,231,367,-554,-45114,74030,-238977
339593000,2570,787,182,15404,-56045,-319740
339612000,-1485,2078,-1819,61572,-73450,-101725
339631000,-1244,1317,-1967,-57648,77038,147557
339650000,-159,-230,-474,-60106,64213,101236
339669000,90,190,-281,-86717,-8854,73068
339688000,-11,99,-938,-19984,-11526,7770
339707000,-141,349,-997,-14717,-26244,12763
339726000,-152,243,-873,-29908,-37236,30442
339745000,-146,270,-878,-25526,-40198,33007
339764000,-162,349,-902,-27847,-49435,35526
339783000,-185,366,-900,-27450,-59923,34442
339802000,-178,356,-857,-27816,-64458,33114
339821000,-173,401,-883,-29419,-67053,33206
339840000,-227,462,-949,-29221,-67190,40229
339859000,-260,482,-949,-30244,-63755,54167
339878000,-262,478,-916,-30961,-59221,66183
339897000,-248,428,-909,-33175,-56488,72106
339916000,-209,391,-859,-35877,-59984,70503
339935000,-227,431,-812,-38076,-66931,61557
339954000,-284,527,-850,-38625,-69709,57740
339973000,-307,598,-892,-37755,-68366,61404
339992000,-306,605,-904,-37709,-62000,70961
340011000,-309,601,-905,-35312,-58335,78580
340030000,-309,660,-934,-30564,-54534,82564
340049000,-264,680,-960,-27114,-53694,87328
340068000,-207,608,-920,-20717,-53954,83129
340087000,-245,654,-923,-12396,-57297,70152
340106000,-297,716,-994,-4396,-53007,70274
340125000,-346,719,-1055,-152,-36793,83480
340144000,-276,660,-995,3404,-23206,91022
340163000,-259,588,-990,8610,-15175,86122
340182000,-247,553,-1021,15832,-14274,74427
340201000,-337,581,-1051,21938,-7419,68534
340220000,-340,579,-1040,27435,3679,67664
340239000,-284,519,-1013,31404,8442,61083
340258000,-278,521,-990,38030,9740,47954
340277000,-308,550,-977,43190,13404,37862
340296000,-291,552,-951,47404,17267,30015
340315000,-266,518,-943,50198,21236,22992
340334000,-243,477,-932,53618,21938,10045
340353000,-233,487,-946,55954,20290,-4045
340372000,-269,493,-973,56824,24259,-14000
340391000,-293,498,-1001,58610,28183,-24000
340410000,-308,486,-997,59480,32595,-35740
340429000,-296,495,-974,61877,35877,-50183
340448000,-321,522,-959,64824,40335,-62992
340467000,-416,519,-947,67282,49954,-72641
340486000,-412,455,-892,64671,58015,-84778
340505000,-424,385,-846,61374,61709,-108503
340524000,-437,429,-833,57312,60320,-136259
340543000,-469,436,-871,50137,65847,-155389
340562000,-434,408,-832,36992,76198,-172427
340581000,-346,337,-715,25603,78717,-196442
340600000,-270,302,-645,10213,69496,-230045
340619000,-178,318,-534,-6366,56809,-259541
340638000,45,559,-529,-21160,41511,-263236
340657000,1250,1077,-777,-6061,31267,-192213
340676000,920,2374,-17,55450,-85022,-161496
340695000,-634,1479,-1625,25648,-2488,57129
340714000,-94,599,-1306,-44473,49557,166717
340733000,-141,60,-784,-38091,34061,154351
340752000,128,327,-424,-44610,-33297,114396
340771000,123,270,-707,-14167,-74671,72045
340790000,-69,348,-713,-13053,-86458,47022
340809000,-236,435,-972,-12916,-76671,68015
340828000,-205,443,-942,-22259,-64076,92992
340847000,-145,297,-819,-32534,-67740,94061
340866000,-154,237,-805,-41358,-75923,79618
340885000,-216,303,-922,-46839,-76366,70641
340904000,-250,410,-947,-52961,-73358,70961
340923000,-262,441,-985,-56580,-65679,76396
340942000,-247,428,-979,-58305,-60366,77877
340961000,-206,407,-983,-58687,-60030,71160
340980000,-226,477,-997,-56396,-60106,64870
340999000,-238,546,-1008,-52458,-56503,66839
341018000,-221,572,-983,-48244,-49175,71358
341037000,-166,599,-968,-42458,-43664,74412
341056000,-119,562,-945,-39526,-42259,75862
341075000,-77,531,-929,-33862,-44335,73541
341094000,-114,572,-933,-28427,-45236,68549
341113000,-152,615,-1001,-20793,-42091,68244
341132000,-118,642,-1030,-15786,-36748,73801
341151000,-117,614,-1048,-9267,-30977,76580
341170000,-108,585,-1009,-4290,-28351,72045
341189000,-143,578,-1014,1572,-26534,65038
341208000,-210,607,-1030,8564,-20045,59374
341227000,-240,628,-1044,13312,-10244,60717
341246000,-181,572,-998,16656,-4091,61954
341265000,-198,540,-981,22458,-198,54305
341284000,-194,534,-949,26977,-2198,41648
341303000,-275,592,-975,32732,-1083,28427
341322000,-271,596,-985,36549,3648,22580
341341000,-276,621,-972,40396,9816,17358
341360000,-285,577,-960,43954,15374,9541
341379000,-279,559,-945,49038,17267,-2641
341398000,-274,562,-939,52396,18244,-12763
341417000,-264,557,-933,55664,20381,-21740
341436000,-292,537,-928,57099,23740,-28045
341455005,-294,474,-894,55770,27725,-36564
341474000,-298,431,-884,53282,29007,-49923
341493000,-291,423,-885,49312,30381,-63816
341512000,-323,447,-897,46167,35251,-75389
341531000,-341,453,-911,41618,41358,-84137
341550000,-386,446,-915,37648,49099,-93419
341569000,-458,445,-928,32717,59053,-107832
341588000,-429,396,-867,24885,65175,-125389
341607000,-417,389,-846,19908,68763,-151664
341626000,-530,459,-921,13587,76183,-174442
341645000,-499,460,-864,2900,85251,-188946
341664000,-390,356,-766,-10229,90229,-208519
341683000,-327,374,-689,-21083,83114,-238259
341702000,-205,327,-627,-35801,73496,-262290
341721000,297,616,-469,-49404,55938,-262015
341740000,3871,1253,-510,-9618,-72351,-100335
341759000,183,3106,-1891,47679,-115862,-150091
341778000,-603,1064,-1673,-12458,31770,108580
341797000,-175,407,-827,-36229,66213,182152
341816000,-94,-110,-603,-66274,43557,133816
341835000,64,229,-326,-40244,-18274,72534
341854000,-120,323,-963,-3221,-60519,40748
341873000,-303,471,-1016,-5175,-61526,44549
341892000,-283,483,-888,-15236,-46671,70442
341911000,-241,406,-961,-19114,-34809,82946
341930000,-158,306,-895,-23877,-42503,75145
341949000,-171,285,-793,-26687,-54488,57312
341968000,-211,388,-867,-28931,-57633,47282
341987000,-206,440,-929,-31816,-55374,50702
342006000,-229,448,-919,-32946,-52580,55893
342025000,-219,432,-895,-33694,-50412,57297
342044000,-225,387,-907,-33801,-50625,52732
342063000,-194,376,-910,-34458,-53572,44427
342082000,-181,412,-921,-34320,-55190,40183
342101000,-172,472,-960,-33114,-53129,40687
342120000,-209,514,-1003,-30778,-47572,44137
342139000,-191,514,-1007,-29908,-41770,49175
342158000,-157,500,-1023,-26625,-36900,51297
342177000,-104,482,-990,-24137,-37511,47862
342196000,-131,546,-1020,-17908,-38320,44671
342215000,-171,596,-1072,-12274,-31175,48381
342234000,-192,588,-1046,-8473,-22671,54351
342253000,-170,558,-1021,-2351,-17938,55068
342272000,-164,507,-978,1190,-16534,50290
342291000,-172,528,-990,6671,-16412,42977
342310000,-286,594,-1059,14488,-10732,40931
342329000,-308,603,-1050,20213,-274,46656
342348000,-271,524,-1010,23557,7297,46641
342367000,-249,473,-995,30549,7938,36152
342386000,-290,493,-1009,35877,7221,26534
342405000,-329,526,-1021,39725,11633,20763
342424000,-345,527,-1015,43755,16580,18122
342443000,-328,517,-987,47007,19419,11755
342462000,-311,514,-970,51603,20824,1618
342481000,-302,502,-985,55190,20900,-9206
342500000,-315,494,-975,58320,23206,-18503
342519000,-307,449,-949,59419,25847,-26106
342538000,-276,418,-932,59954,26244,-36702
342557000,-320,396,-954,59664,28656,-46335
342576000,-306,375,-934,58748,32458,-56656
342595000,-364,366,-953,58961,34335,-71328
342614000,-396,339,-958,57022,37419,-88015
342633000,-462,290,-989,55236,43832,-104854
342652000,-498,218,-987,47969,52503,-128900
342671000,-510,160,-969,40167,57450,-159465
342690000,-509,180,-939,30137,64961,-191435
342709000,-547,219,-921,16152,74717,-215465
342728000,-482,264,-849,1496,83755,-230778
342747000,-310,226,-706,-17129,84717,-246671
342766000,245,324,-402,-37374,63587,-239694
342785000,3999,1801,250,9664,-75282,-78961
342804000,510,3489,-1028,51465,-150152,-103022
342823000,-545,671,-1351,-20213,-687,67526
342842000,-446,392,-1289,-39343,106061,146427
342861000,-11,86,-1042,-61816,41679,111038
342880000,181,159,-274,-42916,-36320,75862
342899000,-41,155,-738,-15526,-44839,34748
342918000,-135,252,-1103,-16610,-59358,33404
342937000,-208,379,-959,-23526,-64000,50839
342956002,-155,394,-925,-27083,-54045,71297
342975000,-143,377,-955,-29068,-53297,75129
342994000,-120,346,-892,-31603,-63877,70106
343013000,-148,320,-879,-33328,-67740,64381
343032000,-198,370,-940,-34458,-66274,65938
343051000,-185,401,-964,-35740,-64335,73954
343070000,-226,408,-958,-35648,-59954,81832
343089000,-196,383,-947,-36687,-59038,84778
343108000,-192,340,-947,-38396,-61648,83160
343127000,-185,373,-944,-36045,-63557,76152
343146000,-177,439,-961,-34580,-67190,73877
343165000,-230,505,-1056,-31297,-62366,80229
343184000,-206,518,-1080,-29114,-53358,89282
343203000,-132,460,-1036,-29251,-51770,92793
343222000,-75,437,-1000,-25175,-53206,84442
343241000,-157,537,-1047,-18809,-53572,77068
343260000,-190,589,-1144,-12580,-44977,80641
343279000,-223,602,-1145,-8992,-29358,89770
343298000,-156,510,-1073,-5435,-19053,93312
