# IKS01A3 
 
time[us],acc_x[mg],acc_y[mg],acc_z[mg],gyro_x[mdps],gyro_y[mdps],gyro_z[mdps]
194813000,342,713,560,-778,-6946,2320
194832000,318,720,552,-564,-6534,-1206
194851000,308,725,533,-809,-4473,-2290
194870000,317,698,558,-1984,-3465,-4977
194889000,363,654,569,-3511,-4320,-11816
194908000,334,652,557,-7007,-3801,-17328
194927003,359,654,612,-10946,-8916,-22839
194946000,415,632,764,-15129,-14198,-30916
194965000,406,647,794,-21099,-22519,-39618
194984000,367,665,753,-26793,-27709,-37816
195003000,391,632,771,-34320,-38564,-37114
195022000,417,610,845,-39511,-46106,-44442
195041000,360,632,786,-43419,-49419,-53679
195060000,333,673,741,-47145,-54519,-56534
195079000,324,730,748,-48732,-53679,-51541
195098000,293,777,692,-49709,-51541,-41145
195117001,300,779,686,-48854,-49282,-33832
195136000,305,782,623,-46488,-44900,-32335
195155000,306,789,603,-43786,-41404,-30503
195174000,296,798,567,-41526,-37328,-24290
195193000,307,809,553,-38717,-32916,-17877
195212000,307,786,541,-35450,-29358,-15923
195231000,311,794,517,-31068,-27129,-16366
195250000,306,776,495,-27770,-23893,-14274
195269000,298,765,463,-23465,-20809,-12519
195288000,283,748,456,-20351,-16473,-11267
195307000,292,730,456,-17007,-14000,-12458
195326000,288,724,458,-13083,-11679,-13526
195345000,281,725,484,-9038,-9465,-15007
195364000,294,707,486,-4916,-9633,-16183
195383000,274,733,502,-1694,-8916,-18366
195402000,306,762,499,3022,-8717,-18839
195421000,293,779,499,6641,-9297,-16259
195440000,287,787,503,9496,-10061,-11603
195459000,300,772,503,13740,-9221,-11938
195478000,312,748,514,17770,-10076,-17801
195497000,296,803,494,22198,-11374,-15847
195516000,318,782,496,23572,-8854,-11145
195535000,336,761,518,24931,-6900,-10778
195554000,350,776,507,26381,-6564,-10610
195573000,382,768,549,27526,-7007,-12000
195592005,376,757,543,27954,-4381,-11511
195611000,385,779,551,27022,-2534,-8366
195630000,386,775,539,25862,610,-4213
195649000,450,779,624,24778,-3648,5267
195668000,679,580,647,17480,-3404,3206
195687000,675,650,530,14992,-17114,-10274
195706000,496,869,551,14793,-21389,-244
195725000,464,949,472,16274,-10671,21816
195744000,510,868,454,21099,-8366,30625
195763000,544,697,449,18244,-5740,28076
195782000,496,640,521,20381,-8503,12137
195801000,420,593,401,14351,809,13038
195820000,483,683,444,8061,3175,29358
195839000,454,731,530,6687,8885,40931
195858000,426,676,505,2931,16351,44671
195877000,350,652,470,-1496,23847,43847
195896000,411,596,570,-11709,28885,50000
195915000,554,557,647,-22274,28351,50671
195934000,541,623,741,-25236,23694,41740
195953000,441,644,696,-28137,23343,33648
195972000,326,597,640,-35206,27435,32900
195991000,248,599,613,-39679,32442,32000
196010000,150,688,569,-43053,42702,40763
196029000,145,758,579,-41526,55190,49221
196048000,302,620,607,-47175,63511,57648
196067001,359,422,533,-53526,66427,47679
196086000,443,528,678,-55816,51053,33267
196105000,403,847,823,-48152,48259,32687
196124000,343,929,980,-36702,50839,33770
196143000,484,657,1019,-27679,45083,21908
196162000,522,376,751,-29419,36595,7664
196181000,420,556,733,-30946,27664,-11450
196200000,334,679,768,-29572,29541,-6152
196219000,513,534,770,-31526,30488,4809
196238000,399,422,715,-32992,28503,-3511
196257000,284,542,829,-26549,20061,-6244
196276000,284,616,809,-23893,23480,5053
196295000,378,467,724,-22793,24809,8183
196314000,391,467,694,-20396,21679,-1480
196333000,374,565,774,-19862,21740,-9633
196352000,476,569,836,-21954,21557,-7007
196371000,370,570,801,-24106,28870,2061
196390000,274,494,825,-20854,29206,5511
196409000,278,451,849,-18931,29618,8045
196428000,325,414,760,-17480,23114,870
196447000,333,535,836,-14641,22335,3358
196466000,305,506,855,-12625,21526,-198
196485000,348,423,802,-14015,18259,3175
196504000,315,492,752,-15419,18244,-1740
196523000,244,507,738,-17450,17435,-4717
196542000,246,498,777,-17923,15374,-2396
196561000,253,471,778,-15450,11603,-503
196580000,271,460,852,-11541,6091,-1404
196599000,383,488,858,-8015,2015,1450
196618000,391,479,868,-6625,2442,5633
196637000,314,445,773,-6687,4213,6717
196656000,304,438,857,-6778,2564,5526
196675000,329,426,838,-8167,2900,8427
196694000,330,470,879,-9297,2137,8244
196713000,274,423,923,-8748,1358,6061
196732003,264,401,906,-8488,30,5389
196751000,283,406,906,-9206,-2748,3038
196770000,259,436,901,-10259,-2366,335
196789000,248,414,862,-11450,-2244,-1374
196808000,242,398,854,-11572,-3526,-3541
196827000,242,419,858,-10702,-5557,-4854
196846002,261,447,868,-9251,-8473,-4091
196865000,255,406,914,-6885,-11725,-5007
196884000,247,378,830,-5541,-16534,-8396
196903000,244,409,828,-6564,-18870,-10564
196922000,244,412,836,-6091,-21450,-11618
196941000,267,427,879,-5679,-23297,-8748
196960000,286,419,868,-4900,-22564,-8961
196979000,273,426,838,-3389,-22580,-13190
196998000,297,434,815,-3435,-23251,-9083
197017000,334,486,856,-3450,-22793,-6992
197036000,308,454,839,-3068,-21526,-8442
197055000,320,460,858,-2396,-21801,-9312
197074000,291,475,821,-1022,-20717,-13068
197093000,304,479,811,1557,-20198,-12473
197112000,321,479,786,1450,-15343,-5679
197131000,357,453,812,2259,-15419,-3374
197150000,317,492,832,4763,-13114,-473
197169000,292,470,815,8885,-13007,-290
197188000,308,420,765,11435,-15908,-2091
197207002,295,480,793,12381,-16748,-3267
197226000,320,490,792,11435,-16259,-503
197245000,370,484,868,11770,-18122,1572
197264000,410,459,825,12961,-20000,1221
197283000,372,460,810,11221,-17862,-1083
197302000,376,503,851,11282,-17938,-4305
197321000,330,502,802,9435,-13358,-30
197340000,302,491,822,9435,-7847,-595
197359000,370,440,782,10763,-8549,-6244
197378000,378,503,788,8854,-2580,4244
197397000,334,518,929,11129,4870,9984
197416000,421,504,913,18335,4778,-1404
197435000,421,422,763,21282,3801,-12229
197454000,330,463,763,15587,6045,-14564
197473000,361,631,854,11664,2442,-13190
197492000,295,570,746,10366,4687,-13083
197511000,290,543,803,10748,6641,-12931
197530000,276,562,813,12748,5022,-11770
197549000,241,481,755,11893,5816,-4229
197568000,337,511,815,11175,-1068,-3435
197587000,216,492,694,5297,2137,3572
197606000,313,484,758,2549,2977,2824
197625000,342,469,740,137,1603,-427
197644000,351,574,818,977,1572,-122
197663000,335,521,707,946,4900,-381
197682000,339,597,754,-305,290,7007
197701000,303,527,714,-1755,1969,11633
197720000,248,494,695,-1221,3480,13816
197739000,277,483,733,-1099,4259,14030
197758000,285,465,730,-3862,6106,18045
197777000,298,499,752,-3312,5480,13267
197796000,310,520,739,-5603,5862,14717
197815000,333,527,780,-5587,5801,12687
197834000,347,571,786,-3511,3740,11374
197853000,274,463,729,-4396,4992,11770
197872001,284,515,703,-5557,5389,9725
197891000,245,522,688,-10748,13099,20137
197910000,260,489,694,-12702,16061,18366
197929000,261,399,693,-18396,19206,17160
197948000,147,281,627,-28122,23312,7312
197967000,162,454,798,-30137,15312,-5969
197986000,360,796,1037,-23465,3633,-320
198005000,354,656,1065,-10122,13862,-366
198024000,492,449,842,-7801,18045,7862
198043000,225,431,773,-6000,21740,9053
198062000,245,468,830,-3511,13847,8763
198081000,303,430,1033,1114,1832,793
198100000,428,452,873,3358,7786,1801
198119000,319,463,813,2564,12885,6412
198138000,192,357,783,458,13832,7312
198157000,345,158,918,549,11236,3129
198176000,289,487,732,5282,-2396,-21358
198195000,242,572,960,10274,-1160,-15618
198214000,296,200,719,183,5114,-1587
198233000,457,347,678,-3099,45,-20290
198252000,276,528,775,-3923,3267,-13984
198271000,395,468,826,-7755,12946,2412
198290000,422,458,870,-7007,15419,2702
198309000,247,487,862,-1129,13236,-5832
198328000,250,526,836,-183,6167,-10595
198347001,326,630,845,473,3908,-13496
198366000,387,614,787,1404,5908,-5251
198385000,415,555,761,-671,8091,-1419
198404000,336,589,800,259,9114,2442
198423000,270,540,831,534,7328,5679
198442000,305,507,812,-1648,8488,1419
198461000,298,493,777,-1251,13007,5816
198480000,253,498,855,-2595,12366,10442
198499000,224,503,822,-167,15022,4137
198518000,197,428,781,778,12259,763
198537000,242,446,837,3465,7984,-2656
198556000,210,460,807,5083,7954,-4427
198575000,218,425,763,4839,6458,-7725
198594000,270,464,779,3099,5770,-6870
198613000,221,489,835,2427,5328,-7465
198632000,272,482,883,4763,2900,-7923
198651000,270,516,815,3938,4946,-10213
198670000,218,496,729,1038,8061,-8503
198689000,291,504,860,-76,3816,-4015
198708000,243,525,844,992,4900,-4778
198727000,302,469,793,305,6900,-2671
198746000,230,503,802,-2305,8274,-2992
198765000,269,478,805,-2091,7832,-656
198784000,228,487,867,-809,5908,-61
198803000,259,473,795,-3709,5496,-3267
198822000,203,491,787,-5328,5312,-1786
198841000,220,481,787,-7236,4183,-2580
198860000,195,481,769,-8564,6610,-2030
198879000,265,515,920,-7038,2335,564
198898000,291,475,876,-6900,-1053,-366
198917000,232,495,860,-6381,1099,-3083
198936000,198,488,763,-6870,4351,-6076
198955000,177,507,786,-6610,3694,-6122
198974000,164,535,815,-4931,5068,-4442
198993000,213,519,816,-4748,3954,-2916
199012000,166,479,803,-3206,3862,-3603
199031000,159,518,818,-2076,2351,-7709
199050000,191,499,791,-2732,1190,-8503
199069000,173,480,780,-2503,1129,-6870
199088000,172,468,772,-2717,1633,-6717
199107000,172,468,781,-2335,1908,-5664
199126000,127,474,800,-992,2305,-5282
199145000,161,501,846,458,-1007,-6717
199164000,183,488,810,1206,-2809,-8839
199183000,217,478,802,1190,-4549,-7908
199202000,218,511,854,1175,-1648,-4702
199221000,209,517,824,1725,-809,-3511
199240000,180,495,802,2015,-854,-5587
199259000,217,491,812,3251,-3145,-6656
199278000,174,531,808,4091,-1694,-5740
199297000,200,512,806,4580,-2351,-5068
199316001,209,519,838,4122,-1923,-5694
199335000,152,511,822,4198,-625,-5633
199354000,173,522,826,5007,76,-5480
199373000,164,540,828,5083,916,-5679
199392000,178,534,810,5923,1618,-5709
199411000,173,508,832,7709,1633,-5389
199430000,198,489,764,8198,351,-7526
199449000,197,509,829,8732,-1099,-9404
199468000,188,504,783,8229,-1725,-11175
199487000,185,501,800,7282,-2106,-12916
199506000,181,509,791,7893,-3740,-14122
199525000,221,540,863,10427,-6137,-13755
199544000,252,550,791,10244,-4198,-12183
199563000,288,537,770,8458,-3526,-9679
199582000,300,533,774,6839,-4870,-6931
199601000,314,552,816,5893,-6534,-4549
199620000,295,535,825,5236,-8290,-4946
199639000,269,541,815,4961,-7190,-3923
199658000,254,526,800,4198,-7572,-1862
199677000,249,547,831,3175,-6595,-854
199696000,242,529,780,1343,-7175,-1786
199715000,259,526,810,-320,-6625,900
199734000,252,542,767,-2213,-4458,1603
199753000,186,571,757,-3328,-2671,3053
199772000,243,551,770,-4519,-6778,2809
199791000,258,500,766,-6335,-10045,1282
199810000,185,574,755,-6198,-12656,564
199829000,243,560,796,-6946,-13587,4885
199848000,325,510,727,-11893,-13694,7954
199867000,279,531,887,-13694,-14167,4045
199886000,298,485,762,-17297,-18152,-1633
199905000,256,541,894,-16580,-18259,2793
199924000,294,479,751,-20045,-19343,-30
199943000,359,458,909,-21969,-25221,2824
199962000,178,541,795,-23740,-19832,1648
199981000,328,487,794,-28015,-20519,2641
200000000,340,455,837,-31328,-16961,8732
200019000,187,457,818,-31770,-12610,8366
200038000,199,471,862,-30045,-14183,4717
200057000,221,466,848,-30900,-17175,6687
200076000,260,466,891,-31511,-14152,13480
200095000,175,438,860,-32244,-11068,14015
200114000,223,421,884,-31114,-14885,7022
200133000,205,405,872,-29923,-17740,732
200152001,192,404,904,-28274,-19480,-4977
200171000,191,435,896,-26000,-20381,-9786
200190000,172,425,837,-26274,-16702,-8076
200209000,190,422,842,-23740,-17893,-7374
200228000,200,438,887,-18656,-20213,-13480
200247000,199,428,862,-12427,-23068,-16015
200266000,219,427,841,-6213,-24625,-15129
200285000,286,441,855,-2076,-26748,-16687
200304000,302,453,853,717,-29816,-19007
200323000,298,444,875,5389,-30473,-17328
200342000,356,398,828,6351,-31541,-12519
200361000,412,423,857,3954,-28534,-10702
200380000,396,427,918,4320,-29511,-9145
200399000,336,412,903,5877,-29160,-7480
200418000,311,432,929,10351,-31633,-6702
200437000,342,483,951,14870,-33007,-6992
200456000,335,470,876,14335,-32061,-3389
200475000,349,515,879,16473,-33068,-5465
200494000,325,551,855,18259,-35465,-5267
200513000,450,589,973,19587,-38763,-1938
200532000,332,585,895,26534,-38076,-8793
200551000,330,634,853,32503,-39832,-15862
200570000,375,625,792,34946,-38824,-13114
200589000,424,558,787,33969,-38702,-10396
200608000,483,469,789,30961,-42076,-12625
200627003,493,462,808,33816,-44625,-19969
200646000,396,522,710,35404,-43725,-16549
200665000,268,440,729,30809,-36335,3038
200684000,323,378,784,30916,-34458,8106
200703000,333,379,813,32702,-40366,2641
200722000,341,397,801,32992,-39923,-2290
200741000,389,434,724,31893,-40763,-12870
200760000,417,462,659,27526,-41816,-17557
200779000,448,493,626,22274,-42534,-15984
200798000,501,582,684,21572,-45541,-15007
200817000,434,612,639,22167,-43786,-14656
200836000,435,632,630,22091,-41450,-13236
200855000,450,633,584,18366,-35496,-13709
200874000,467,746,551,18778,-31847,-10900
200893000,476,775,547,20763,-29175,-8473
200912000,523,789,541,24748,-25236,-4519
200931000,540,777,521,26503,-22824,-2167
200950000,528,771,431,27618,-18625,2458
200969000,563,775,397,24732,-7832,10412
200988000,608,735,346,30137,-3358,8870
201007000,668,731,398,31770,-717,14015
201026000,743,639,390,28732,-687,21175
201045000,717,579,323,23923,1267,17908
201064000,675,597,372,24564,1801,2625
201083000,591,687,376,23358,3007,-5160
201102000,504,813,361,22656,11587,6687
201121000,497,867,396,23145,19832,21068
201140000,508,818,451,24778,27175,27648
201159000,491,727,448,24625,32442,20885
201178000,505,622,461,20931,36045,6977
201197000,434,703,471,18229,34091,641
201216000,335,797,428,12931,37282,18274
201235000,379,682,469,7572,46351,34152
201254000,438,601,496,5725,46564,27404
201273000,364,583,451,2503,49862,19969
201292001,345,606,444,-1923,52152,18045
201311000,338,731,428,-3068,56687,18305
201330000,397,789,426,-2656,56366,26824
201349000,496,625,466,-6473,57267,27664
201368000,619,585,543,-9328,43541,11480
201387000,586,715,589,-12671,31022,9053
201406000,568,781,657,-12946,22198,19786
201425000,519,769,640,-11038,20854,20732
201444000,487,704,623,-8610,20564,9877
201463000,461,702,656,-7786,18824,-1206
201482000,436,716,667,-7877,17954,-3114
201501000,443,718,674,-8809,17480,1419
201520000,441,680,690,-9328,18137,4152
201539000,438,635,653,-8793,18671,-15
201558000,450,602,643,-9099,17465,-6916
201577000,482,663,665,-8870,13908,-9832
201596000,494,703,668,-6992,9145,-12671
201615000,470,679,655,-5236,5480,-18931
201634000,449,671,652,-2305,5770,-28809
201653001,437,707,674,3358,4152,-43282
201672000,356,807,637,10412,2748,-44396
201691000,279,859,612,13816,7770,-29938
201710000,283,779,586,15832,13633,-16427
201729000,313,702,623,16152,14610,-10854
201748000,340,635,602,16396,16503,-15221
201767000,342,618,591,15893,15908,-25618
201786000,290,635,605,15419,14000,-31709
201805000,182,643,585,10274,15557,-25541
201824000,187,626,612,4244,15587,-12198
201843000,239,549,622,-1068,16702,-7114
201862000,275,500,647,-6442,15832,-11679
201881000,396,469,663,-15160,6702,-18381
201900000,477,490,726,-20229,-4824,-21816
201919000,458,584,779,-23083,-16580,-24320
201938000,438,581,707,-25862,-21221,-28351
201957000,420,601,712,-29312,-28839,-29893
201976000,372,622,676,-32167,-32885,-26412
201995000,313,627,694,-36458,-38503,-18641
202014000,365,571,726,-39099,-39053,-21770
202033000,368,570,750,-39572,-46992,-39099
202052000,289,689,748,-40152,-54305,-42687
202071000,312,696,784,-43175,-57068,-34961
202090000,344,677,833,-44793,-63053,-34335
202109000,360,673,846,-44183,-66519,-41419
202128000,342,645,815,-43587,-73297,-48534
202147000,284,606,807,-44580,-77557,-52320
202166000,208,624,782,-46061,-81908,-50122
202185000,206,660,726,-46687,-79511,-40473
202204000,237,599,715,-49251,-75603,-36198
202223000,265,557,694,-52000,-72625,-38854
202242000,227,572,661,-56412,-69862,-38351
202261000,228,584,614,-58946,-61175,-37480
202280000,215,595,636,-60564,-54183,-38977
202299000,267,578,640,-62305,-49099,-41984
202318000,321,567,660,-63786,-46335,-46702
202337000,336,554,668,-64259,-44580,-54015
202356000,327,557,690,-62977,-42656,-64167
202375000,319,623,720,-61251,-44503,-69541
202394000,321,658,702,-60412,-42412,-68030
202413000,342,621,709,-60351,-38198,-67923
202432003,409,576,672,-57145,-32809,-88152
202451000,593,625,668,-49404,-35068,-125160
202470000,753,692,651,-38656,-46442,-172839
202489000,763,859,679,-33358,-67633,-168885
202508000,429,960,504,-26824,-57984,-123496
202527000,287,722,486,-33175,-40229,-79908
202546000,301,439,474,-34534,-22229,-65206
202565000,303,333,472,-38580,-5572,-70198
202584000,406,415,600,-37374,2824,-77358
202603000,457,561,677,-32213,1832,-74885
202622000,409,712,708,-30519,3511,-51114
202641000,384,658,738,-27908,6274,-27541
202660000,350,496,746,-29053,10122,-20076
202679003,290,333,735,-35099,8030,-26839
202698000,287,344,805,-37984,-1435,-45175
202717000,284,480,853,-34961,-9480,-61404
202736000,227,534,802,-34519,-11801,-60580
202755000,173,559,775,-34519,-7648,-43633
202774000,213,512,820,-33786,-4381,-32748
202793000,242,472,892,-30610,-5083,-34534
202812000,258,516,917,-26824,-7297,-33404
202831000,276,557,922,-21954,-6015,-25862
202850000,312,569,920,-18045,-6916,-18229
202869000,292,585,920,-11526,-8412,-16870
202888000,246,566,878,-6015,-8030,-18519
202907001,208,521,826,-2198,-8106,-21083
202926000,168,508,783,-916,-6442,-23862
202945000,150,548,750,1312,-3938,-22488
202964000,143,590,749,2916,-717,-15480
202983000,175,525,769,2335,1496,-8824
203002000,197,451,771,1786,2610,-12503
203021000,251,504,828,2885,305,-18564
203040000,251,589,864,5251,-2122,-18244
203059000,221,598,865,8381,-1832,-16045
203078000,211,577,879,11083,-2519,-16503
203097000,195,565,862,13068,-2610,-16030
203116000,166,568,853,13938,-2396,-13190
203135000,144,575,827,14564,-1801,-10030
203154002,139,542,818,14229,-1572,-7832
203173000,137,538,811,14213,-854,-6656
203192000,116,539,792,14687,-610,-5938
203211000,118,507,780,13954,0,-6061
203230000,139,482,772,12412,-1068,-9969
203249000,139,503,784,10977,-2488,-15343
203268000,129,557,788,10320,-4442,-19770
203287000,127,597,783,11053,-5648,-19328
203306000,117,605,799,10442,-5404,-15282
203325000,120,592,822,10656,-5389,-13236
203344000,144,608,831,11465,-6595,-15206
203363000,146,634,835,13725,-7343,-17618
203382000,108,617,792,12534,-6961,-14702
203401000,116,557,774,9740,-5450,-12198
203420000,125,598,766,9511,-5145,-15572
203439000,114,639,765,8702,-3923,-13282
203458000,108,630,758,7480,-3175,-8809
203477000,112,629,753,6259,-2351,-5297
203496000,117,634,734,4809,-595,-2320
203515000,133,605,741,2717,1129,-641
203534000,152,586,764,-198,1633,-1862
203553000,177,581,753,-3419,1053,-1343
203572003,152,609,711,-7648,2473,5480
203591000,163,593,709,-11358,4671,9587
203610000,187,545,710,-13832,5236,10183
203629000,234,523,677,-17679,3099,9083
203648000,249,572,695,-18396,1343,5435
203667000,256,614,747,-17236,-3404,-2625
203686000,221,616,760,-16702,-7587,-7053
203705000,172,606,710,-18503,-8687,-8534
203724000,178,615,716,-17480,-7038,-11603
203743000,157,630,719,-17160,-5221,-9740
203762000,158,604,696,-16961,-1740,-1893
203781000,198,571,720,-17083,610,4641
203800000,213,557,721,-15816,1251,5129
203819000,216,567,729,-15435,1801,2870
203838000,179,593,734,-14091,503,4045
203857000,127,649,705,-13114,717,7908
203876000,124,668,722,-12198,3190,15083
203895000,132,676,764,-10946,4793,21374
203914000,124,684,769,-10335,7068,28503
203933000,104,642,789,-10656,9923,36335
203952000,123,619,788,-9648,12183,41236
203971000,158,572,839,-8595,14320,44015
203990000,179,548,843,-5770,15633,39404
204009000,180,519,863,-4687,12885,35603
204028000,188,498,863,-3877,11480,32290
204047000,162,503,849,-3435,10320,29816
204066000,144,516,833,-3496,11328,29450
204085000,133,522,862,-3099,11251,30763
204104000,147,500,879,-3114,10748,31022
204123000,150,451,879,-3358,8259,29007
204142000,162,443,904,-3816,7160,23190
204161000,170,451,917,-3160,3160,15435
204180000,160,474,923,-3129,2076,11068
204199000,171,478,911,-2809,549,9419
204218000,184,472,923,-1572,-2000,5404
204237000,183,457,920,-1862,-4519,412
204256000,184,454,905,-1954,-5862,-3450
204275000,195,452,876,-2396,-7633,-5267
204294003,205,490,867,-1832,-8641,-5938
204313000,184,496,843,-2122,-8290,-4366
204332000,199,486,819,-2885,-8030,-2274
204351000,229,489,801,-4320,-8381,-3312
204370000,217,518,803,-5404,-9114,-4671
204389000,187,525,795,-6732,-8763,-3419
204408000,178,521,796,-7175,-7526,-183
204427000,194,531,807,-7480,-5465,4091
204446000,208,523,822,-7404,-4213,5908
204465000,230,511,836,-7297,-5068,5404
204484000,210,495,827,-6793,-5694,4167
204503000,194,507,814,-6564,-5633,3755
204522000,211,534,804,-5480,-6167,3145
204541000,211,567,785,-4442,-5893,3343
204560000,200,562,773,-3969,-4702,3633
204579000,204,566,760,-3343,-3282,5450
204598000,213,591,786,-3328,-1282,10229
204617000,219,581,801,-3450,580,15496
204636000,236,537,800,-3160,1801,19450
204655000,242,479,798,-3435,2854,19603
204674000,229,433,826,-5312,4442,17221
204693000,255,436,863,-7328,5190,13603
204712003,232,436,866,-8870,5694,9847
204731000,234,422,865,-9312,5694,6839
204750000,250,446,838,-9938,5969,5587
204769000,258,483,850,-10229,6244,6244
204788000,265,483,838,-9725,5969,7068
204807000,270,453,808,-9633,5496,6763
204826000,259,462,807,-8961,4931,4305
204845000,220,505,824,-8656,5343,3664
204864000,213,522,841,-6931,6183,4763
204883000,219,525,853,-4961,6198,1847
204902000,208,536,869,-2320,6961,-4885
204921000,215,547,909,3832,6259,-19954
204940000,190,545,922,10916,5755,-35709
204959000,178,625,915,17679,2335,-36931
204978000,127,755,855,24534,1343,-18900
204997000,112,756,765,28473,10137,5572
205016000,167,670,750,34106,15236,16916
205035000,180,672,702,39709,17740,14992
205054000,155,685,646,41938,21984,18244
205073000,144,640,620,42763,26305,23282
205092000,157,614,598,41786,29847,30931
205111000,156,646,634,39816,29312,47633
205130000,135,685,629,38122,35358,69938
205149000,200,587,640,35083,38961,91236
205168000,275,515,685,32671,38137,100839
205187000,301,469,670,33053,38122,93190
205206000,300,478,674,31251,34106,85877
205225000,277,517,651,27816,36595,88106
205244000,257,515,641,23007,39496,96854
205263000,254,506,663,18656,41694,108045
205282000,233,504,747,14824,44381,110580
205301000,205,483,787,12106,45572,107877
205320000,225,448,797,12137,45786,96198
205339000,261,449,787,13404,41648,77801
205358000,274,514,813,12580,37572,68244
205377000,262,553,775,11984,37099,69725
205396000,235,522,789,12290,37053,66549
205415000,234,477,816,13648,37480,54244
205434000,268,491,802,15022,31572,39572
205453000,242,572,795,14809,27206,38641
205472000,219,566,776,12961,26748,47083
205491000,180,549,814,13725,32564,48412
205510000,238,410,859,10290,29557,31007
205529000,311,334,869,5984,24000,24793
205548000,236,470,854,-351,14793,20427
205567000,171,596,786,-3038,17496,33007
205586000,219,504,770,-5114,22122,42793
205605000,277,470,749,-6870,20900,36061
205624000,250,540,710,-10534,21740,29160
205643000,241,552,697,-13877,24229,29389
205662000,277,531,700,-18564,26519,29862
205681000,311,512,747,-22656,25435,31633
205700000,298,591,856,-24335,21969,32641
205719000,324,563,966,-25465,17572,32534
205738000,204,709,1005,-19465,16961,17129
205757000,0,633,1036,-13175,24916,3725
205776000,102,468,1007,-18534,25175,1969
205795000,330,524,798,-23282,17450,9114
205814000,356,612,807,-23709,11938,13954
205833000,332,521,827,-21083,8519,9679
205852001,341,461,855,-20366,4183,3312
205871000,285,466,885,-16183,-534,-839
205890000,300,417,882,-14885,-4091,-11633
205909000,305,492,841,-7862,-7251,-18549
205928000,286,498,815,-7236,-4213,-13175
205947000,335,448,883,-5587,-2000,-11557
205966000,342,416,861,-2900,-2015,-18076
205985000,322,461,863,-3175,-15,-16030
206004000,269,477,847,-3312,2076,-13832
206023000,212,453,835,-1282,4824,-12977
206042000,197,460,795,1908,4702,-10061
206061000,207,488,757,4015,3480,-1938
206080000,220,486,796,5267,5770,4320
206099000,269,452,811,5755,3267,3312
206118000,323,469,802,4458,1450,671
206137000,284,484,823,4763,503,91
206156000,243,506,866,6610,-1709,1557
206175000,327,509,884,6427,-4229,2427
206194000,348,473,839,6763,-6564,-2061
206213000,271,496,770,7358,-9496,-2580
206232000,282,522,817,6229,-9419,-916
206251000,290,494,791,4793,-9938,-2274
206270000,285,502,774,2824,-8870,-1175
206289000,291,540,822,1908,-5450,213
206308000,283,497,850,1633,-6702,-1862
206327000,255,500,794,-290,-5725,1343
206346000,279,490,794,-2793,-1374,6213
206365000,299,477,801,-3190,-76,4503
206384000,311,471,814,-3618,-2091,3587
206403000,274,482,778,-4931,-1175,3694
206422000,274,541,855,-5404,-1160,6305
206441000,260,468,850,-5709,-1389,4763
206460000,255,490,782,-7587,-2122,5725
206479000,270,535,803,-10900,396,11022
206498000,279,434,817,-13175,-381,11694
206517000,279,444,837,-12335,-2916,8839
206536000,278,475,799,-11603,-2793,8656
206555000,307,439,798,-11664,-3022,8824
206574000,245,479,832,-8351,-3557,9251
206593000,289,503,935,-4366,-5282,11114
206612000,300,442,851,-1465,-5190,8671
206631000,296,474,805,-595,-5679,9007
206650000,308,497,856,-595,-3938,15496
206669000,298,484,867,-1770,-4000,24030
206688000,320,468,904,-1114,-2961,24763
206707000,339,484,856,-961,-1862,23404
206726000,305,488,890,-2580,-4916,21572
206745000,336,484,893,-167,-13145,9770
206764000,291,541,849,4381,-16885,-2290
206783000,239,569,865,8717,-20091,-7984
206802000,280,604,858,14488,-22564,-5786
206821000,243,581,859,18656,-22442,-7480
206840000,241,549,857,22442,-22244,-9297
206859000,269,526,874,23160,-27343,-14427
206878000,256,520,863,24748,-29725,-19022
206897000,260,539,897,26961,-37236,-20351
206916000,175,559,876,27847,-37236,-16503
206935000,216,517,906,25419,-40000,-6564
206954000,235,512,878,29236,-39908,-9908
206973000,229,499,857,30458,-39648,-13938
206992001,253,489,844,30290,-41679,-17129
207011000,310,506,816,30045,-47740,-16488
207030000,382,549,848,31847,-56366,-14534
207049000,353,547,791,31496,-55511,-18167
207068000,355,472,767,28458,-57679,-25145
207087000,378,479,762,25068,-61923,-35816
207106000,358,467,773,20030,-66824,-37893
207125000,388,486,770,14641,-69404,-38351
207144000,401,486,740,7969,-71526,-40274
207163000,393,458,722,244,-74396,-43557
207182000,362,505,760,-7389,-79175,-46870
207201000,350,503,816,-17511,-80778,-44412
207220000,338,345,916,-29587,-85022,-54137
207239000,335,377,891,-37526,-88458,-69145
207258000,220,399,759,-46519,-86305,-77053
207277000,253,466,787,-56137,-87022,-76442
207296000,259,473,807,-66854,-84885,-73435
207315000,260,449,778,-76870,-82824,-72977
207334000,231,429,727,-86427,-80885,-77801
207353000,208,435,695,-95465,-76488,-81251
207372000,184,473,696,-103603,-71725,-81450
207391000,166,520,673,-111282,-64793,-77374
207410000,195,554,663,-117221,-59236,-74320
207429000,188,609,645,-120183,-55938,-67679
207448000,194,623,632,-122244,-49389,-61419
207467000,202,606,644,-121816,-43801,-62381
207486000,202,578,651,-119603,-38335,-70458
207505000,196,561,671,-117175,-33175,-81114
207524000,251,611,720,-113251,-36137,-90183
207543000,206,719,707,-108549,-37694,-83068
207562000,243,673,725,-104717,-35267,-71862
207581000,285,562,710,-100076,-34977,-74000
207600000,259,477,686,-94519,-33664,-88137
207619000,302,423,677,-89923,-34519,-110000
207638000,293,446,666,-85496,-37770,-129755
207657000,215,544,675,-85679,-42824,-120091
207676000,184,604,700,-90274,-36167,-90351
207695000,251,520,717,-89694,-28000,-73572
207714000,287,459,728,-86442,-22717,-77480
207733000,299,464,743,-80549,-20122,-92320
207752000,324,461,768,-74824,-17114,-104183
207771000,293,521,833,-73419,-18412,-94549
207790000,290,575,905,-75648,-11755,-68167
207809000,315,532,886,-71129,-5465,-49221
207828000,353,462,864,-62748,0,-45938
207847000,429,396,896,-53374,-137,-50732
207866000,419,367,903,-44839,-702,-58045
207885000,383,373,884,-39541,-1862,-59083
207904000,363,409,919,-35541,-3083,-50885
207923000,371,401,954,-31954,137,-37862
207942000,383,357,977,-25068,1022,-34885
207961000,388,367,972,-18045,-213,-37984
207980000,387,354,940,-11480,809,-36748
207999000,389,361,941,-6259,15,-32366
208018000,364,392,945,-2488,1725,-23893
208037000,363,394,980,290,3877,-11099
208056000,413,370,986,3129,5129,-1083
208075000,428,310,978,7816,3587,-503
208094000,450,275,969,13267,1465,-5648
208113000,407,340,971,15099,-2458,-4549
208132001,395,366,980,14839,-488,8977
208151000,429,315,995,14641,137,18793
208170000,452,269,1005,15893,-1190,16793
208189000,426,240,949,18030,-2045,11755
208208000,416,266,934,17404,-1618,13648
208227000,417,270,936,15007,-1465,22916
208246000,423,245,933,11282,-2610,31908
208265000,416,242,932,8137,-2946,39328
208284000,411,214,919,7129,-2870,37938
208303000,411,182,907,5343,-3694,30992
208322000,399,185,913,2015,-4610,25725
208341000,382,227,906,-1847,-5236,26015
208360000,382,258,902,-5160,-4091,30839
208379000,382,228,902,-7221,-3358,31038
208398000,395,239,932,-8702,-5007,26198
208417000,372,265,915,-6900,-6015,20412
208436000,337,296,914,-3923,-6091,17068
208455000,319,324,905,-1038,-4687,20946
208474000,317,321,910,1480,-2931,28717
208493000,312,285,907,2152,-1557,35282
208512000,336,275,897,2839,106,36503
208531000,352,268,915,4076,1435,36946
208550000,345,266,919,5862,2335,35557
208569000,338,289,934,7816,2198,35893
208588000,340,302,935,10030,3450,39053
208607001,354,306,936,13343,4854,42885
208626000,361,302,919,16778,5099,46641
208645000,382,296,919,21175,3740,47358
208664000,379,278,901,25633,1938,43099
208683000,371,304,934,29725,-1801,35465
208702000,350,333,944,33664,-3358,30198
208721000,337,363,941,37633,-3923,27038
208740000,325,417,923,42519,-3511,29618
208759000,327,444,912,47877,-1083,37526
208778000,321,465,934,53358,702,41358
208797000,318,489,939,58687,381,41969
208816000,321,525,953,64335,-76,42381
208835000,334,560,965,71389,-549,42625
208854003,301,617,970,80061,-2351,44442
208873000,271,685,943,88015,-137,49419
208892000,258,738,924,95480,3297,60473
208911000,229,755,889,103435,8396,71343
208930000,224,718,816,108748,14015,75083
208949000,242,689,788,113832,20030,71908
208968000,190,706,723,118427,25893,68015
208987000,170,721,653,120580,35648,69328
209006000,208,756,660,122564,45282,79740
209025000,233,691,658,122977,58671,95450
209044000,260,655,650,121893,65496,108000
209063000,274,603,672,118946,68946,109786
209082000,258,559,636,113786,72961,107358
209101000,280,518,671,109679,75984,102625
209120000,336,527,711,108167,76702,100030
209139000,355,516,716,104274,78870,102167
209158000,373,481,692,99709,77603,102549
209177000,410,400,666,90610,73954,94641
209196000,423,425,648,81007,64824,85053
209215000,411,430,655,70381,61083,78488
209234000,424,446,671,62015,56916,72564
209253000,422,457,658,55969,53419,62763
209272000,418,468,636,49389,51740,56229
209291000,441,477,648,41404,48519,51557
209310000,433,502,644,33160,45450,49725
209329000,432,496,662,26916,43954,45328
209348000,449,484,681,22122,39908,37465
209367000,424,515,676,18183,36885,35465
209386000,416,510,639,12656,36274,38213
209405000,420,475,606,6625,36992,38305
209424000,415,482,612,2015,37648,35175
209443000,438,525,644,0,37129,33312
209462001,446,520,654,-2396,38030,33328
209481000,448,502,643,-4625,38977,28687
209500000,428,509,655,-6793,38030,24519
209519000,402,498,657,-10977,39664,26000
209538000,436,495,691,-14854,41679,28213
209557000,437,475,725,-18381,41145,31068
209576000,455,450,746,-21129,40366,30229
209595000,436,388,762,-23618,40167,20931
209614000,430,427,771,-23984,37129,9343
209633000,392,515,769,-24778,36549,10778
209652000,436,473,797,-28290,38137,22427
209671000,546,368,874,-30824,41099,23206
209690000,576,282,835,-31465,30824,6412
209709000,529,378,885,-31984,19419,-6351
209728000,412,471,855,-31801,19633,-7312
209747000,368,526,836,-29496,19404,-2748
209766000,398,480,849,-29801,22549,7404
209785000,451,444,867,-26503,20106,5816
209804000,417,446,861,-23832,17282,2946
209823000,424,397,886,-24534,15908,4580
209842000,468,304,872,-25389,14580,-580
209861000,433,311,843,-27038,8870,-11358
209880000,416,350,835,-27343,7801,-15114
209899000,359,435,810,-27832,6427,-11206
209918000,358,446,819,-26671,8671,-6351
209937000,352,377,782,-26152,12045,-8351
209956000,378,367,798,-24732,11938,-15786
209975000,314,393,791,-24396,13328,-18870
209994000,321,421,821,-23557,15267,-13862
210013000,324,410,827,-23206,16732,-6213
210032000,340,355,846,-22900,17526,-4366
210051000,355,287,857,-23908,18244,-10763
210070000,393,304,927,-23618,11083,-19648
210089000,385,378,928,-23786,6748,-19877
210108000,387,398,901,-24045,5175,-14091
210127000,393,387,919,-20412,1938,-16000
210146000,377,403,921,-16106,-1618,-17465
210165000,371,403,904,-13816,-2244,-12625
210184000,358,392,906,-10854,-2488,-9984
210203000,328,376,891,-8809,-2229,-7129
210222000,345,330,896,-8702,-1297,-4946
210241000,352,308,902,-7893,-3893,-6305
210260000,327,300,865,-7877,-3679,-7877
210279000,327,287,843,-8183,-3557,-8687
210298000,321,295,842,-10351,-2717,-7740
210317000,312,302,861,-12229,-763,-4793
210336000,320,345,868,-12412,1068,-2793
210355000,332,323,864,-12000,2229,-183
210374000,330,333,882,-11374,2595,-2977
210393000,351,354,914,-8809,1648,-7068
210412001,347,400,883,-5832,1129,-10167
210431000,347,376,874,-4076,1282,-9435
210450000,346,286,909,-4076,1389,-10900
210469000,282,247,945,-4351,-2977,-18778
210488000,196,285,898,-5083,-4992,-21145
210507000,203,337,891,-6213,-2809,-14809
210526000,253,364,918,-5435,-2076,-11755
210545000,284,325,907,-4793,-2366,-12259
210564000,300,294,909,-4732,-2854,-15083
210583000,310,317,889,-4625,-4610,-18045
210602000,289,307,900,-3297,-4473,-22809
210621000,286,327,901,-1587,-6045,-24564
210640000,273,400,895,198,-5496,-21022
210659000,287,318,918,625,-4412,-18366
210678000,320,217,923,1709,-9022,-25801
210697000,304,364,893,1801,-13374,-22900
210716000,255,425,859,3938,-6183,-12931
210735000,317,315,920,6549,-4030,-7801
210754000,324,319,935,10335,-9343,-13557
210773000,270,352,854,10748,-8564,-9374
210792000,298,385,864,10229,-5435,30
210811000,285,378,883,11679,-4778,-809
210830000,281,345,844,13465,-6000,-6244
210849000,256,346,806,10671,-3816,-4183
210868000,238,431,824,11099,-1389,-4305
210887000,262,424,833,11221,4961,1251
210906000,300,392,818,12396,6702,-656
210925000,318,393,829,13221,6061,-6732
210944000,323,422,843,12198,6183,-8229
210963000,295,441,824,10931,9267,-5282
210982000,287,502,855,11832,10183,-5389
211001000,329,511,892,11908,10854,-3587
211020000,354,481,856,12763,11587,-8839
211039000,377,471,822,13206,11435,-10656
211058000,315,480,856,13572,12381,-13129
211077000,341,500,878,16564,10580,-14870
211096000,309,488,836,16870,11511,-14641
211115000,245,388,881,18290,11358,-18839
211134000,145,295,757,12366,13007,-7770
211153000,232,487,836,15725,6152,-9877
211172000,301,489,797,17251,4534,-7709
211191000,268,361,845,17236,-473,-15389
211210000,197,441,820,17755,-7954,-28580
211229000,101,583,702,17786,-5496,-32427
211248000,169,606,743,14137,-1633,-24412
211267000,173,539,739,10763,-2763,-26503
211286000,200,516,790,8763,-2198,-29557
211305000,175,523,810,7374,-1374,-27664
211324000,255,503,752,7160,-2946,-27022
211343000,280,533,737,5419,-2839,-21190
211362000,168,509,760,3587,-885,-14625
211381000,242,504,848,2870,-1022,-15007
211400000,285,475,741,-381,-2641,-16870
211419000,269,563,886,-458,-5145,-13557
211438000,267,515,733,-1938,-1572,-6916
211457000,326,541,894,-2458,-2152,-3206
211476000,264,470,748,-5099,-7801,-14458
211495000,358,583,924,-3618,-10305,-12198
211514000,124,604,739,-4946,-2549,-2854
211533000,197,482,709,-3007,-4946,-6274
211552000,497,534,920,-1648,-14900,-5755
211571000,304,604,780,-5740,-5221,4931
211590000,18,540,695,-6900,2015,4641
211609000,66,479,585,-6198,-5099,-7694
211628000,401,529,803,-8122,-21129,-13725
211647000,565,569,940,-10137,-27938,-10488
211666000,650,558,1000,-10198,-32839,-5587
211685000,715,526,1024,-12458,-34427,-5694
211704000,477,512,972,-12900,-33679,-8229
211723000,391,548,858,-13557,-26412,-5618
211742000,218,507,773,-15404,-19816,-4259
211761000,82,530,722,-15190,-12763,-2916
211780000,46,509,740,-18854,-6412,-1618
211799000,72,479,754,-21374,-6000,-5572
211818000,368,410,890,-25526,-14412,-1114
211837000,328,590,913,-19923,-20625,-12396
211856000,304,562,896,-24000,-14061,-2045
211875000,253,508,885,-23648,-14702,274
211894000,170,478,772,-21099,-15251,-9618
211913001,98,502,744,-18732,-12473,-14137
211932000,174,481,700,-18641,-10244,-8610
211951000,349,521,819,-18564,-12427,-4977
211970000,363,495,873,-18824,-18061,3068
211989000,356,445,842,-16793,-24946,1557
212008000,190,451,758,-15038,-19496,-2916
212027001,153,393,637,-16000,-14595,-7465
212046000,199,441,683,-19633,-14900,-1755
212065000,313,399,878,-20854,-23389,4442
212084000,315,318,838,-22702,-25847,7236
212103000,189,371,884,-23984,-20625,7603
212122000,243,292,847,-24000,-22549,6427
212141000,232,316,858,-25129,-25480,5175
212160000,254,337,1022,-23694,-32488,-1938
212179000,220,397,950,-23603,-33175,-9175
212198000,348,460,1102,-23022,-30045,-2900
212217000,191,410,932,-21694,-24977,-351
212236000,309,436,996,-18076,-32305,-1633
212255000,429,543,956,-16458,-26839,1022
212274000,290,414,853,-18351,-29022,7511
212293000,270,431,964,-15221,-24625,-7099
212312000,303,462,892,-14610,-23389,-14458
212331000,359,431,885,-10961,-24870,-18000
212350000,342,383,945,-4961,-30625,-20213
212369000,350,339,901,-1083,-30366,-26106
212388000,325,368,776,839,-29221,-24335
212407000,355,340,814,5175,-27328,-16885
212426000,425,364,867,8793,-30351,-19572
212445000,368,338,805,6870,-28916,-22961
212464000,361,383,856,6549,-27740,-21282
212483000,396,395,817,7526,-29099,-16717
212502000,473,329,821,8473,-27587,-13190
212521000,413,424,786,8534,-27664,-17969
212540000,471,406,864,2564,-22809,-10213
212559000,442,351,829,-4061,-20473,-6946
212578000,489,389,878,-5954,-22091,-12656
212597000,407,464,969,-5648,-23267,-10900
212616000,326,502,972,-2656,-22702,-580
212635000,349,493,954,0,-21633,900
212654000,438,437,859,-534,-25450,-6809
212673000,434,534,907,809,-25664,-12534
212692004,410,564,865,-534,-19847,-11450
212711000,339,576,819,-2763,-8427,-7007
212730000,288,503,778,-4488,-5267,-4809
212749000,273,453,742,-1541,-7297,-9129
212768000,286,467,768,3465,-6931,-13465
212787000,218,427,732,1343,-2427,-6854
212806000,209,421,680,2030,-1343,-7770
212825000,212,454,714,778,3954,106
212844000,290,451,728,3358,2931,1022
212863000,262,409,705,4961,5755,2809
212882000,256,443,766,6076,6931,6412
212901000,247,479,762,6687,8748,9709
212920000,349,495,809,7480,7984,10580
212939000,335,392,747,5618,8412,8167
212958000,383,450,843,3877,6320,2412
212977000,305,499,848,3328,7954,2381
212996000,339,474,867,2671,8885,1389
213015000,402,492,867,3526,6916,244
213034000,354,466,819,4381,9236,1282
213053000,354,483,791,3526,9236,2076
213072000,311,510,776,3435,10671,5465
213091000,321,502,806,4748,10473,7557
213110000,315,512,855,7190,10656,10961
213129000,360,447,816,8366,8610,11465
213148000,310,473,732,7572,9022,8671
213167002,281,519,854,8992,10458,8885
213186000,409,436,845,7450,8549,10488
213205000,314,484,796,6931,12900,10534
213224000,358,434,918,10396,12137,11770
213243000,297,453,729,8870,15251,9770
213262000,423,440,882,8152,13053,13984
213281000,247,468,793,7450,16519,11007
213300000,347,436,678,8229,13740,6732
213319000,387,521,869,5923,13114,11022
213338000,291,546,769,10427,14473,7770
213357000,333,503,777,11664,8916,6519
213376000,476,541,857,9099,-320,6320
213395000,372,608,846,8854,5541,5755
213414000,290,575,721,11450,7343,2076
213433000,365,585,755,11633,1740,-3007
213452000,439,539,795,8519,-1465,-1648
213471000,324,544,826,7358,6229,809
213490000,219,560,705,9129,10259,-7603
213509000,197,574,667,8366,8717,-10091
213528000,208,528,735,5435,9206,-5297
213547000,339,529,693,6824,1923,-5465
213566000,318,525,764,3969,5389,2641
213585000,336,483,762,2931,9603,2656
213604000,314,554,864,4763,4442,1374
213623000,240,542,783,3603,11770,9633
213642000,291,567,749,4961,12900,10763
213661000,300,521,701,3435,17847,10793
213680000,270,512,676,3969,21496,10213
213699000,223,562,665,3679,26717,16809
213718000,311,514,730,5740,24183,19923
213737000,284,542,727,4885,24335,28351
213756000,318,458,806,6885,21923,28396
213775000,285,470,747,8748,20396,23496
213794000,254,531,705,10503,23206,18213
213813000,309,511,787,10549,22381,19175
213832000,320,468,800,9465,17587,20244
213851000,381,432,909,7297,10977,21755
213870000,330,490,881,7511,11099,14076
213889000,252,518,824,8427,17175,12763
213908000,261,532,814,8412,23251,12458
213927000,292,480,867,4152,25312,15282
213946000,346,453,910,2305,17343,11145
213965000,355,482,840,-1099,17648,13022
213984000,254,552,733,-977,22793,6427
214003000,229,526,847,-473,23862,9496
214022000,221,520,694,1725,25847,7954
214041000,262,471,750,1603,23221,12961
214060000,290,476,774,3801,16229,7343
214079000,226,525,801,5725,17328,6717
214098000,225,527,719,8244,18977,7954
214117000,239,502,828,7572,19679,10839
214136000,277,485,819,8809,16732,6793
214155000,275,483,837,9541,17206,5480
214174000,196,522,753,9022,16412,732
214193000,239,486,934,6564,15511,3175
214212000,243,498,804,5297,17954,4061
214231000,289,460,851,5038,20595,3664
214250000,250,498,746,5297,18473,-885
214269000,217,510,824,1099,21175,3221
214288000,214,512,786,-854,20335,-106
214307000,260,494,817,-1572,21694,5541
214326000,247,471,757,-2458,23740,8763
214345000,253,462,854,-1053,24320,11343
214364000,229,516,827,-3419,26641,13618
214383000,325,454,885,-5557,27114,18183
214402000,294,476,780,-6641,25022,17312
214421000,253,487,796,-7083,30381,20320
214440000,222,499,717,-6458,34290,18122
214459000,254,494,858,-4000,33908,23664
214478000,296,491,820,-5099,35022,23679
214497000,340,474,942,-3816,32213,25816
214516000,319,445,831,-4259,29709,25358
214535000,279,456,918,-4167,29755,27633
214554000,261,425,868,-2961,28900,21389
214573000,187,470,854,-2610,28412,17465
214592000,246,442,913,-1496,28076,17786
214611000,269,443,871,-458,26442,18381
214630000,237,455,898,-137,24259,19557
214649000,297,417,913,2427,21114,15297
214668000,306,511,887,4015,24259,17664
214687000,274,487,977,6335,23160,21282
214706000,309,447,780,6091,26259,18244
214725000,245,581,896,7343,28809,21572
214744000,202,545,934,8549,24366,18244
214763000,19,597,684,10839,31633,15496
214782000,4,512,633,10320,31709,17389
214801000,131,444,854,11572,20809,12259
214820000,223,462,836,12244,19893,12213
214839000,259,512,1055,12671,14916,14000
214858000,82,557,815,12595,16717,7786
214877000,7,564,696,7587,16381,4351
214896000,166,463,825,4213,5206,3816
214915000,242,473,998,7969,3984,7343
214934000,138,506,806,6931,7404,7206
214953000,170,464,856,4671,1083,4916
214972000,174,506,881,6412,-1038,1801
214991000,259,485,818,2152,-1847,5618
215010000,241,518,886,839,-2259,6137
215029000,229,471,775,-2534,-3236,6106
215048000,199,542,885,-2015,-2916,6488
215067000,233,471,916,-3770,-6687,7221
215086000,166,465,822,-3755,-4137,3587
215105000,122,544,863,-3038,-931,6595
215124000,179,479,832,-4473,15,4305
215143000,149,507,812,-5984,1404,1725
215162000,132,506,827,-6519,2839,2152
215181000,124,511,854,-5450,2427,183
215200000,126,510,817,-4656,2519,641
215219000,144,484,803,-6839,2809,-106
215238000,156,505,822,-6473,1236,-4564
215257000,175,503,833,-7282,1267,-4030
215276000,162,486,834,-8641,519,-4824
215295000,136,470,831,-9923,-183,-8091
215314000,145,493,836,-11618,1496,-6885
215333000,178,452,869,-14183,5160,-3480
215352000,157,427,890,-13175,4549,-8274
215371000,136,438,852,-13236,1557,-9847
215390000,137,444,869,-14732,763,-9053
215409000,59,468,889,-13160,-580,-10961
215428000,172,422,938,-14717,-8137,-13083
215447000,111,395,881,-15145,-9328,-15755
215466000,109,469,895,-14320,-15618,-17587
215485000,173,405,854,-16519,-18320,-17206
215504000,195,409,877,-17862,-21328,-20656
215523000,193,518,1016,-14732,-25450,-21358
215542000,175,438,926,-16534,-30564,-23190
215561000,175,419,879,-15587,-37083,-29343
215580000,173,543,1034,-11572,-38244,-26595
215599000,260,421,857,-12625,-45526,-27572
215618000,95,481,835,-9969,-44748,-25374
215637000,264,400,954,-8732,-51160,-22076
215656000,169,479,925,-4091,-49541,-18610
215675000,192,415,949,152,-54305,-22167
215694001,225,415,983,2213,-61297,-24396
215713000,68,417,881,2549,-57328,-25633
215732000,190,458,937,3709,-63877,-25114
215751000,150,487,889,6122,-59328,-23267
215770000,208,533,1009,12259,-60961,-27847
215789000,308,565,1096,20381,-69618,-32961
215808000,249,598,968,32213,-71465,-46625
215827000,320,665,1053,42351,-80763,-63175
215846000,210,466,870,46015,-74839,-57282
215865000,371,514,852,43755,-73832,-46473
215884000,199,485,810,44320,-70198,-44732
215903000,291,475,886,45496,-73755,-40167
215922000,269,404,900,46458,-77450,-35572
215941000,280,424,822,44458,-77984,-37068
215960000,223,440,765,46213,-77068,-36916
215979000,201,437,754,43694,-75312,-33053
215998000,268,381,751,38213,-75221,-29648
216017000,332,372,744,36885,-79587,-36854
216036000,259,490,666,35557,-82763,-37755
216055000,246,537,632,26106,-78549,-32610
216074000,289,591,672,17267,-76458,-33969
216093000,302,649,683,13190,-79618,-42839
216112002,291,636,652,9893,-82763,-50030
216131000,276,617,622,5648,-84793,-57908
216150000,249,662,584,2854,-86030,-67893
216169000,250,763,555,-641,-85465,-70641
216188000,281,842,512,-3740,-81679,-68671
216207000,278,848,465,-5877,-76717,-66519
216226000,320,829,447,-5938,-75083,-68473
216245000,311,808,413,-5679,-73068,-73328
216264000,284,855,377,-5954,-72732,-72274
216283000,259,899,315,-9129,-67603,-58458
216302000,309,902,262,-13847,-57038,-42167
216321000,336,928,278,-12885,-51175,-34564
216340000,297,929,258,-9206,-44961,-34381
216359000,277,899,246,-6549,-39328,-32427
216378000,260,882,208,-5450,-34076,-28977
216397000,257,909,196,-3954,-27099,-21954
216416001,254,868,158,-3572,-16992,-14595
216435000,252,855,157,-3236,-6824,-13160
216454000,229,895,189,-2671,2687,-11145
216473000,219,905,224,-3908,14229,-2244
216492000,264,909,308,-7251,21908,10000
216511000,300,898,394,-8671,28381,18061
216530000,314,854,435,-8931,31770,19114
216549000,286,834,444,-8671,35190,18503
216568000,295,786,468,-11618,35923,26687
216587000,432,794,581,-14320,34045,30625
216606000,409,768,590,-20244,28625,43618
216625000,552,599,637,-23190,33740,29328
216644000,338,650,582,-18519,21511,-1175
216663000,282,807,572,-18778,18717,-519
216682000,354,552,644,-29984,19389,17190
216701000,494,340,756,-42595,15282,4641
216720000,445,330,706,-51190,5526,-24442
216739000,295,638,675,-51725,-305,-37587
216758000,178,870,689,-48748,5480,-27419
216777000,247,877,689,-45755,14030,-11343
216796000,357,963,702,-34366,7541,-5740
216815000,407,933,676,-27893,5908,-2122
216834005,452,858,691,-19328,3236,-12259
216853000,352,850,616,-12305,-3786,-20122
216872000,268,842,518,-12396,-961,-12274
216891000,284,764,520,-13832,2259,-4045
216910000,256,696,561,-14854,4870,-6167
216929000,255,697,659,-14458,4061,-15450
216948000,182,778,696,-10885,2015,-17328
216967000,56,770,659,-8458,6732,-16671
216986000,201,685,647,-10977,12946,-10442
217005000,382,622,635,-10778,10061,-13618
217024000,372,662,604,-9816,3618,-21816
217043000,223,734,553,-12595,3786,-22152
217062000,235,818,531,-16335,13435,-8519
217081000,354,811,598,-18610,21312,2274
217100000,378,735,685,-18000,19526,1511
217119000,240,605,659,-21068,19282,4793
217138000,182,656,602,-27038,23908,14854
217157000,217,739,579,-31832,29419,36900
217176000,250,602,609,-37694,36473,56793
217195000,372,591,780,-43038,27511,58946
217214000,239,666,696,-46687,36793,66641
217233000,283,615,669,-49984,42412,78839
217252000,384,609,745,-48412,37160,73480
217271000,348,644,799,-46320,33404,61923
217290000,381,649,832,-43740,32167,56076
217309000,264,660,814,-39083,35603,43129
217328000,321,602,820,-39526,38977,48763
217347000,311,572,766,-40167,40992,44396
217366000,290,575,758,-39664,37893,46595
217385000,281,507,770,-43160,41450,49480
217404000,278,398,792,-44580,40534,45786
217423000,333,455,794,-44625,38732,43206
217442000,321,412,826,-45603,45175,48091
217461000,379,466,858,-38931,41969,49083
217480000,329,510,818,-39038,41984,53862
217499000,412,497,922,-37526,42671,63083
217518000,455,525,898,-37190,38198,66793
217537000,412,493,964,-36549,36335,67480
217556000,427,451,925,-34244,30458,64427
217575000,245,441,924,-33267,30793,65847
217594000,162,385,851,-31221,34961,67312
217613000,104,340,785,-28931,37557,65603
217632000,144,368,898,-24274,35236,66641
217651000,147,342,893,-23175,31526,62396
217670000,78,352,1010,-19099,23770,63465
217689000,43,326,908,-15511,21557,60671
217708000,46,378,868,-11190,21312,54870
217727000,67,373,938,-4412,16916,62473
217746000,230,365,975,-3572,5267,57908
217765000,85,435,907,-1053,3816,56687
217784000,171,480,795,3129,6198,63374
217803000,161,455,855,5572,6778,67832
217822000,225,461,944,9267,-2000,72320
217841000,246,442,839,10458,-9984,70961
217860000,139,454,853,13312,-10229,72977
217879000,201,402,921,16488,-9175,74564
217898000,213,369,948,16412,-17862,72442
217917000,189,396,906,16793,-18198,71267
217936000,134,392,821,16320,-14824,71160
217955000,206,374,986,16656,-17862,71022
217974001,243,347,939,16198,-21068,70992
217993000,212,375,904,12580,-20900,68488
218012000,171,378,893,12213,-17740,65358
218031000,201,353,939,12290,-16458,70015
218050000,197,338,920,13083,-18137,65954
218069000,166,356,853,12839,-17786,60259
218088000,161,364,895,13038,-17938,63297
218107000,208,364,934,13709,-19816,65694
218126000,186,329,931,18763,-16595,67770
218145000,218,317,873,18732,-12290,65526
218164000,164,312,881,17236,-12977,63832
218183000,166,365,927,17664,-8702,67816
218202000,162,300,937,19038,-7206,71480
218221000,245,276,988,20396,-7022,67343
218240000,222,295,916,20549,-6534,67954
218259000,311,252,1031,20427,-2977,70549
218278000,289,270,977,21114,3206,70946
218297000,200,369,1022,23862,7664,71160
218316000,173,216,1007,22564,9679,71160
218335000,254,206,1073,30687,-1557,60137
218354000,189,331,1065,34488,1221,59984
218373000,249,304,1084,40961,-2717,56977
218392000,242,267,1127,45022,-1801,57572
218411000,339,271,1187,54229,-11450,48396
218430000,319,282,1123,61969,-20351,41664
218449000,293,313,1096,72106,-27450,34748
218468000,310,297,1133,78091,-37740,18824
218487000,323,243,1059,79679,-39297,-3221
218506000,258,220,997,80274,-44290,-32137
218525000,173,250,871,74167,-43145,-45847
218544000,189,257,816,66305,-40183,-50167
218563000,171,290,743,58595,-36763,-60916
218582000,178,389,624,46610,-30534,-61862
218601000,251,554,625,35709,-24045,-57679
218620000,398,635,700,32488,-27297,-55160
218639000,519,572,756,31541,-34244,-63541
218658000,580,504,797,31786,-47587,-84870
218677000,500,629,744,37801,-64045,-96809
218696000,447,718,665,35358,-72320,-91358
218715000,436,618,628,26946,-71557,-81022
218734000,433,554,620,20030,-74122,-88809
218753000,397,612,587,19908,-76854,-102702
218772000,335,756,531,21832,-72717,-104091
218791000,346,830,492,17053,-64061,-91022
218810000,318,904,462,15389,-57740,-71053
218829000,337,875,410,13740,-47801,-52061
218848000,375,816,391,11480,-42167,-40580
218867000,328,762,331,10503,-36778,-36381
218886000,406,815,351,11755,-34656,-37847
218905000,418,897,399,12366,-31328,-34290
218924000,381,898,398,13496,-26656,-28916
218943000,374,869,388,12320,-25725,-19480
218962000,332,845,354,10458,-23267,-12381
218981000,330,821,351,5358,-20687,-1099
219000000,411,816,396,1877,-20671,6564
219019000,437,870,432,-473,-25389,13404
219038000,461,848,505,-5374,-24580,15938
219057000,451,781,503,-10167,-30748,13053
219076000,440,715,503,-16000,-35725,5053
219095000,433,711,509,-20167,-39908,-1083
219114002,401,708,476,-25465,-39923,-5251
219133000,413,690,491,-31511,-39603,-7603
219152000,442,662,464,-38122,-37618,-11114
219171000,469,678,447,-44183,-38519,-11450
219190000,463,698,447,-50244,-35816,-10824
219209000,491,651,412,-56534,-29709,-11404
219228000,507,638,454,-62458,-28152,-19725
219247000,478,664,471,-66534,-25847,-26305
219266000,455,720,482,-69862,-20839,-24152
219285000,469,703,515,-71206,-14763,-21511
219304000,510,636,575,-73190,-9755,-20488
219323000,527,611,602,-74656,-7969,-23358
219342000,539,613,623,-74702,-7038,-29389
219361000,522,620,638,-71908,-6763,-36564
219380000,489,640,624,-70381,-8045,-33053
219399000,436,599,614,-69267,-4061,-24458
219418000,472,539,666,-66916,-3786,-22152
219437000,482,540,693,-63557,-6076,-32732
219456000,487,514,652,-60427,-4229,-48137
219475000,448,503,600,-60732,-5480,-55022
219494000,413,513,557,-63618,-5725,-47908
219513000,414,473,551,-67847,-580,-39435
219532000,478,452,588,-69022,-290,-45572
219551000,498,466,638,-69541,-1984,-59282
219570000,486,466,669,-70717,-3358,-71297
219589000,507,463,713,-69221,-7129,-78381
219608000,447,482,713,-66671,-6732,-77206
219627000,366,444,715,-65862,-778,-70305
219646000,333,465,784,-63160,-122,-62091
219665000,346,508,839,-59404,-2122,-50717
219684000,406,489,879,-58931,-2885,-36473
219703000,394,473,885,-55389,-4961,-31832
219722000,360,433,851,-52244,-4427,-35603
219741000,314,418,831,-47389,-2916,-45664
219760000,290,438,860,-42824,-3862,-55648
219779002,303,478,846,-37801,-3068,-57725
219798000,304,535,844,-33221,-1816,-46824
219817000,285,554,818,-29770,1587,-25923
219836000,311,497,797,-25160,6595,-15206
219855000,317,488,826,-17618,7022,-15099
219874000,337,479,815,-11251,8061,-18381
219893000,344,485,798,-6198,5847,-16931
219912000,364,484,789,-1557,4549,-15190
219931000,365,473,778,1709,1908,-14396
219950000,341,479,763,4229,-45,-14274
219969000,355,470,785,5893,-1526,-15221
219988000,337,508,821,9328,-4778,-18015
220007000,323,540,831,14763,-7984,-19648
220026000,296,596,826,20000,-11816,-15267
220045000,272,587,800,25099,-11984,-8320
220064000,259,559,778,28412,-12854,-5832
220083000,258,547,763,31328,-13893,-6732
220102000,255,539,800,35358,-16229,-11954
220121000,231,545,816,37603,-19725,-15114
220140000,207,552,824,38381,-22687,-16763
220159000,209,590,835,38229,-25496,-16259
220178000,186,648,818,38351,-28625,-9832
220197000,184,677,806,38763,-27389,-2717
220216000,205,654,795,39923,-24625,-2564
220235000,226,621,777,42824,-22641,-11465
220254002,230,607,750,44000,-21664,-21801
220273000,246,608,727,42916,-20198,-25786
220292000,270,652,707,42778,-19557,-23557
220311000,270,673,693,42534,-17587,-18396
220330000,260,665,676,41725,-14122,-12458
220349000,283,666,681,41083,-12732,-9923
220368000,294,670,662,40656,-12274,-9877
220387000,328,693,654,38488,-11618,-8442
220406000,344,688,660,35648,-11022,-5770
220425000,319,709,656,32656,-11343,-3251
220444000,301,692,624,29068,-8091,-3221
220463000,323,697,625,25404,-8152,-4106
220482000,326,746,645,23236,-8183,-4076
220501000,332,781,642,21496,-6458,-1709
220520000,341,778,624,21541,-4809,458
220539000,347,756,631,21190,-5312,854
220558000,350,736,630,18961,-8213,2656
220577000,356,723,615,14977,-11435,3603
220596000,350,733,612,10946,-15786,1648
220615000,361,733,594,7389,-18839,-3725
220634000,340,746,579,4992,-20183,-9068
220653000,294,775,553,3587,-19206,-9190
220672000,292,798,550,3633,-15435,-4809
220691000,299,799,532,5343,-10183,-122
220710000,313,804,556,7694,-6870,4091
220729000,304,814,555,9343,-4351,8274
220748000,312,814,556,11755,-1770,10381
220767000,324,784,531,12946,900,10977
220786000,334,766,521,13221,2000,10244
220805000,328,778,516,12931,1755,10137
220824000,311,789,501,12503,3190,14106
220843000,305,775,510,12167,6106,15740
220862000,316,759,510,12396,7908,13801
220881000,326,775,491,13526,9297,11603
220900000,323,785,482,13786,11206,15038
220919000,329,786,476,13221,14564,19969
220938000,339,783,508,12992,18427,24396
220957000,326,758,508,12702,22564,26229
220976000,333,729,524,12702,24839,28213
220995000,349,736,545,11755,25236,30900
221014000,350,724,557,9450,26854,33038
221033000,373,713,580,7145,26259,32854
221052000,366,709,570,5221,25221,31251
221071000,366,702,554,4519,24183,29221
221090000,374,724,492,5603,24045,27526
221109000,370,757,486,6000,26351,31190
221128000,384,783,541,5694,27465,36610
221147000,379,751,533,5740,28885,38778
221166000,380,728,519,7343,28900,36091
221185000,388,735,503,9099,29022,32274
221204000,382,754,479,10610,29511,35282
221223000,379,753,518,10045,31969,42015
221242000,396,719,539,9541,33877,42381
221261000,432,674,552,9175,33022,34381
221280000,416,697,526,8977,30580,28213
221299000,406,728,488,7725,30534,30854
221318000,422,725,511,6320,32244,35770
221337000,447,706,565,5679,32961,36473
221356000,436,675,611,6473,30595,31984
221375000,423,668,593,6549,28045,27129
221394000,400,681,564,6671,27969,24931
221413000,404,661,521,4671,29465,26534
221432000,413,690,499,3541,29755,30137
221451000,409,688,528,2625,33007,35938
221470000,409,683,588,4580,34137,37389
221489000,401,667,601,5847,36198,36366
221508002,401,656,566,5221,34595,37572
221527000,416,659,574,4137,34763,37862
221546000,422,667,597,3083,35648,38106
221565000,439,659,619,4198,35557,35679
221584000,417,643,615,6519,35236,29984
221603000,401,616,606,7221,35496,25679
221622000,408,658,637,8045,36274,24885
221641000,407,680,628,8503,37893,30763
221660000,428,643,627,9648,38671,33984
221679000,416,610,632,10351,39206,29465
221698000,398,609,636,12412,39282,22916
221717000,389,640,642,14320,38702,21175
221736000,394,658,656,16305,39190,23221
221755000,365,662,665,18137,38396,27480
221774000,468,594,681,18274,37511,33129
221793000,449,575,631,17786,35984,26198
221812000,391,623,624,19389,31816,22839
221831000,387,658,647,18366,30076,26839
221850000,399,552,654,14564,32290,31832
221869000,456,501,635,11908,27755,22305
221888000,445,552,659,9099,21923,12045
221907000,459,623,686,6793,15511,10427
221926000,424,659,699,4854,12580,12045
221945000,373,649,652,7206,11893,6183
221964000,342,630,623,9618,11984,-2870
221983000,299,647,630,11587,11465,-8656
222002000,278,677,620,11038,14381,-4732
222021000,229,774,636,13618,16687,-2366
222040000,250,742,577,12198,27374,6824
222059000,315,691,588,11404,30167,2778
222078000,313,729,586,11755,30717,-2824
222097000,276,777,557,10748,34061,3099
222116000,291,757,546,8167,37725,13053
222135000,335,753,573,6564,38717,15908
222154000,343,859,582,7893,37694,19908
222173000,413,875,586,11450,38625,27679
222192000,417,834,588,15083,37175,28961
222211000,413,737,585,16839,35541,24854
222230000,349,664,518,14961,34931,18778
222249000,342,638,493,7740,35328,23496
222268000,288,734,502,1267,37389,36458
222287000,275,821,622,-274,42824,56335
222306000,318,887,773,6977,45969,63053
222325000,272,811,794,11938,51435,68213
222344000,312,828,779,16763,55312,64916
222363000,427,889,635,20335,54961,62137
222382000,484,815,571,19007,53908,71099
222401000,477,638,661,17603,46030,68274
222420000,355,718,632,20229,37679,51816
222439000,353,791,628,19908,38396,52381
222458000,385,691,636,16549,37816,50687
222477000,501,663,678,14732,29770,39923
222496000,432,674,653,11679,25755,33358
222515000,382,715,610,7694,30839,32335
222534000,401,703,524,4931,35679,32137
222553000,466,724,578,3160,34610,32076
222572000,500,703,575,1267,35007,35862
222591000,477,706,583,839,40977,42015
222610000,354,717,503,1908,43984,44702
222629000,366,780,571,6671,45465,42244
222648001,356,771,491,4610,50396,45435
222667000,491,673,581,1633,45816,39526
222686000,405,742,558,2534,42244,33572
222705000,365,803,514,1633,46687,40122
222724000,407,750,544,2396,45603,40671
222743000,393,733,529,4320,46015,41343
222762000,375,762,541,4366,47206,38519
222781000,383,755,522,3709,49358,43236
222800000,360,762,564,4778,53557,50274
222819000,373,719,583,4671,55251,48641
222838000,350,722,589,4152,54473,45862
222857000,360,694,592,2015,58625,52717
222876000,414,665,650,1801,60961,52793
222895000,391,653,628,687,64213,52534
222914000,345,636,579,-1725,67801,55099
222933000,314,671,647,-2809,69786,56030
222952000,385,643,592,-8320,71954,61083
222971000,349,666,624,-11160,77160,65557
222990000,399,568,633,-15328,74519,61587
223009000,384,702,640,-17022,73648,57297
223028000,402,566,660,-22793,76824,65221
223047000,452,672,791,-18412,70641,61007
223066000,408,661,652,-26366,79465,72427
223085000,280,527,625,-33038,82687,87664
223104000,314,423,710,-35541,71343,87603
223123000,291,454,782,-35938,62488,84687
223142000,205,442,822,-36229,53816,87145
223161000,86,406,741,-35557,52106,89175
223180000,105,484,722,-29770,57832,89984
223199000,293,387,963,-28732,46427,84977
223218000,219,364,926,-30152,38351,78137
223237000,69,318,862,-30625,33648,68610
223256000,87,267,926,-29755,27893,60870
223275000,113,264,1004,-30702,21328,50061
223294000,59,280,957,-29190,18076,36625
223313000,3,315,885,-27328,13267,26396
223332000,114,285,870,-26732,-274,9190
223351000,147,386,959,-28748,-7068,-4351
223370009,195,399,825,-27618,-8137,-6488
223389000,257,375,900,-23816,-17526,-4931
223408000,363,461,838,-19206,-20152,-13694
223427000,343,509,679,-17099,-22427,-11480
223446000,402,514,740,-13450,-27221,-3083
223465000,279,511,841,-10259,-25664,5832
223484000,246,450,866,-4000,-27099,8977
223503000,341,370,966,-2381,-30442,13465
223522000,327,338,945,-1526,-34671,7862
223541000,380,341,991,5755,-37236,-839
223560000,325,358,950,6381,-37190,-2458
223579000,361,358,991,5725,-38000,-854
223598000,331,312,904,2793,-37358,-6763
223617000,332,349,845,-30,-37816,-10763
223636000,353,315,839,-4473,-31328,-3465
223655000,375,253,860,-2427,-32503,-6045
223674001,444,300,907,-1282,-33603,-10885
223693000,373,337,881,-687,-28320,-5786
223712000,464,283,867,-213,-29190,-10061
223731000,374,357,842,-2442,-26687,-10809
223750000,340,407,843,-1541,-25175,-7282
223769000,400,382,820,-2824,-21145,-15
223788001,413,341,813,-3938,-20946,-839
223807000,469,343,824,-1007,-21587,-3770
223826000,386,362,812,-1267,-18641,-1129
223845000,372,344,803,183,-18931,-4122
223864000,373,359,835,564,-15908,-1358
223883000,368,358,839,3541,-16335,381
223902000,428,375,858,4916,-10854,7328
223921000,440,330,882,5297,-9816,10488
223940000,451,364,959,8870,-13389,-1236
223959000,391,466,974,9435,-12427,-4610
223978000,355,566,1028,17007,-12015,-13145
223997000,309,663,1138,31404,-20000,-13358
224016000,400,833,1190,49129,-29603,-13053
224035000,481,760,1167,61480,-39740,-10748
224054000,605,606,1141,70549,-53450,-18778
224073000,706,486,1168,79877,-65496,-33129
224092000,570,439,979,91206,-77251,-58671
224111000,290,240,792,84000,-75603,-48946
224130000,267,140,846,67877,-66427,-21083
224149000,219,276,717,63664,-63343,-26885
224168000,271,353,523,48015,-49022,-17877
224187000,392,333,396,34320,-36595,-12366
224206000,517,450,379,27190,-34106,-15328
224225000,400,568,298,21206,-31022,-12152
224244000,369,541,238,8687,-14900,6641
224263000,427,461,305,-4503,-2885,17740
224282000,443,514,413,-11969,-2167,13893
224301000,402,659,484,-17709,-1251,19511
224320000,415,678,560,-20137,1480,29312
224339000,483,598,569,-26320,2610,26977
224358000,530,582,602,-29908,15,12106
224377000,534,577,600,-30870,-4213,-8091
224396000,448,667,583,-30473,-7664,-22687
224415000,434,736,570,-29740,-8717,-22076
224434000,491,670,593,-31343,-9832,-12793
224453000,532,592,585,-35389,-12396,-13450
224472000,547,563,580,-36473,-15206,-21022
224491000,519,556,539,-31938,-11465,-35938
224510000,494,650,543,-21389,-14213,-46427
224529000,470,739,504,-15801,-9694,-29053
224548000,505,656,469,-13541,-2137,-8931
224567000,594,531,483,-14519,-2305,-3282
224586000,575,555,471,-15328,-5068,-4000
224605000,595,640,530,-15267,-4992,1679
224624000,605,631,634,-13969,-3938,11374
224643000,641,598,718,-12870,-2580,14961
224662000,625,620,794,-8961,-7603,229
224681000,565,675,760,-3389,-6641,-7404
224700000,616,562,731,-2229,-7893,-3755
224719000,659,492,732,-1206,-7923,-9297
224738000,561,523,708,2503,-5435,-16977
224757000,529,602,710,5435,-4854,-10458
224776000,549,482,665,1725,900,5450
224795000,562,384,653,-1099,-778,6274
