# IKS01A3 

time[us],acc_x[mg],acc_y[mg],acc_z[mg],gyro_x[mdps],gyro_y[mdps],gyro_z[mdps]
71267,178,-48,1016,-293,-183,4
87222,178,-48,1016,-293,-183,4
105311,178,-48,1016,-293,-183,4
151258,177,-48,1016,-205,-476,-48
187628,177,-48,1016,-205,-476,-48
208271,177,-48,1016,-205,-476,-48
233801,181,-49,1016,-100,-678,-21
288035,181,-49,1016,-100,-678,-21
308677,181,-49,1016,-100,-678,-21
313791,185,-51,1016,-91,-616,-214
385890,185,-51,1016,-91,-616,-214
396326,187,-38,1013,-91,-166,-415
409729,187,-38,1013,-91,-166,-415
476094,196,-42,1017,-551,39,-170
486944,196,-42,1017,-551,39,-170
512689,196,-42,1017,-551,39,-170
556082,171,-58,1019,-1155,2358,848
585567,171,-58,1019,-1155,2358,848
588344,171,-58,1019,-1155,2358,848
614442,171,-58,1019,-1155,2358,848
637420,155,-59,1015,-879,2038,1491
686551,155,-59,1015,-879,2038,1491
717403,155,-59,1015,-879,2038,1491
719962,164,-50,1017,-310,-249,83
784408,164,-50,1017,-310,-249,83
799948,184,-54,1017,-166,-1093,-1588
818456,184,-54,1017,-166,-1093,-1588
864401,184,-54,1017,-166,-1093,-1588
882419,176,-49,978,74,-608,-840
885614,176,-49,978,74,-608,-840
921570,176,-49,978,74,-608,-840
962414,193,-44,1036,4970,-9135,87
983474,193,-44,1036,4970,-9135,87
1024535,193,-44,1036,4970,-9135,87
1042407,226,-104,1044,-713,-3504,599
1083885,226,-104,1044,-713,-3504,599
1124945,213,-8,1234,-9331,16804,11523
1184287,213,-8,1234,-9331,16804,11523
1204929,181,-127,1676,4593,89359,27978
1228540,181,-127,1676,4593,89359,27978
1282140,181,-127,1676,4593,89359,27978
1287469,-136,132,1391,-5075,105910,33092
1331497,-136,132,1391,-5075,105910,33092
1367232,-67,-114,1173,-39563,16563,-5989
1383188,-67,-114,1173,-39563,16563,-5989
1434455,-67,-114,1173,-39563,16563,-5989
1449775,-54,-182,611,-58450,-13037,7030
1481040,-54,-182,611,-58450,-13037,7030
1529755,-254,17,-97,-37485,-34938,24088
1535501,-254,17,-97,-37485,-34938,24088
1558478,-254,17,-97,-37485,-34938,24088
1582223,-254,17,-97,-37485,-34938,24088
1590105,-254,17,-97,-37485,-34938,24088
1611098,-132,-56,-546,30366,-47849,-4515
1637262,-132,-56,-546,30366,-47849,-4515
1680656,-132,-56,-546,30366,-47849,-4515
1691091,347,35,771,115001,-49765,-10360
1737671,347,35,771,115001,-49765,-10360
1773409,48,383,1998,104409,-1071,11138
1781708,48,383,1998,104409,-1071,11138
1840631,48,383,1998,104409,-1071,11138
1853402,-22,405,1932,-19136,41663,997
1869358,-22,405,1932,-19136,41663,997
1879720,-22,405,1932,-19136,41663,997
1933540,-22,405,1932,-109453,49175,-22592
1936416,161,65,879,-109453,49175,-22592
1941846,161,65,879,-109453,49175,-22592
1980134,161,65,879,-109453,49175,-22592
2016090,1,-141,-322,-90282,19411,-6238
2044804,1,-141,-322,-90282,19411,-6238
2080542,1,-141,-322,-90282,19411,-6238
2096081,-168,3,-781,-6606,-24915,6225
2147765,-168,3,-781,-6606,-24915,6225
2178399,200,151,431,114690,-52255,-8111
2250719,200,151,431,114690,-52255,-8111
2258384,65,438,1993,128130,-16139,10683
2279443,65,438,1993,128130,-16139,10683
2340920,-113,458,1771,33753,7673,3998
2351771,-113,458,1771,33753,7673,3998
2379854,-113,458,1771,33753,7673,3998
2420912,45,228,943,-36255,-1045,-25020
2454729,45,228,943,-36255,-1045,-25020
2477708,45,228,943,-36255,-1045,-25020
2500903,404,-756,1112,-57277,-9896,-28730
2557688,404,-756,1112,-57277,-9896,-28730
2578881,404,-756,1112,-57277,-9896,-28730
2581658,519,-937,905,-92942,-10832,42253
2592510,519,-937,905,-92942,-10832,42253
2659440,519,-937,905,-92942,-10832,42253
2664553,36,404,373,-29920,16734,93156
2677957,36,404,373,-29920,16734,93156
2744538,-450,1695,1072,43102,-13295,60291
2760492,-450,1695,1072,43102,-13295,60291
2775815,-450,1695,1072,43102,-13295,60291
2824529,-450,1695,1072,37502,-41969,-28993
2827406,135,833,1322,37502,-41969,-28993
2863463,135,833,1322,37502,-41969,-28993
2873679,135,833,1322,37502,-41969,-28993
2876384,135,833,1322,37502,-41969,-28993
2907234,169,-360,1108,23401,-2441,-54149
2966575,169,-360,1108,23401,-2441,-54149
2976792,169,-360,1108,23401,-2441,-54149
2987227,166,-1264,1404,5753,12595,-35319
3069536,128,-972,1020,-60641,14004,9620
3075284,128,-972,1020,-60641,14004,9620
3149520,136,-192,758,-50015,16318,37467
3170577,136,-192,758,-50015,16318,37467
3175691,136,-192,758,-50015,16318,37467
3229510,136,-192,758,6505,18427,45513
3232387,175,786,779,6505,18427,45513
3273547,175,786,779,6505,18427,45513
3312054,-40,1606,1264,4121,-22496,13269
3373947,-40,1606,1264,4121,-22496,13269
3376724,-40,1606,1264,4121,-22496,13269
3392046,298,-81,1076,4493,-19551,-69098
3474356,85,-1278,1129,35144,9467,-37651
3477768,85,-1278,1129,35144,9467,-37651
3554339,-99,-307,962,148,16450,8750
3560085,-99,-307,962,148,16450,8750
3573621,-99,-307,962,148,16450,8750
3578952,-99,-307,962,148,16450,8750
3594273,-99,-307,962,148,16450,8750
3635681,37,17,1066,-21533,-9441,-3224
3672054,37,17,1066,-21533,-9441,-3224
3679935,37,17,1066,-21533,-9441,-3224
3715673,53,-151,1114,-7170,-7551,4471
3772460,53,-151,1114,-7170,-7551,4471
3780343,53,-151,1114,-7170,-7551,4471
3798215,-1116,221,1185,7131,7752,28402
3872868,-1116,221,1185,7131,7752,28402
3878197,-264,449,999,-11353,14791,-38915
3881392,-264,449,999,-11353,14791,-38915
3960660,1357,-303,817,-8146,18340,-83103
3971511,1357,-303,817,-8146,18340,-83103
3984498,1357,-303,817,-8146,18340,-83103
4040650,1343,-226,1105,5656,-6422,-10688
4071918,1343,-226,1105,5656,-6422,-10688
4087457,1343,-226,1105,5656,-6422,-10688
4120643,411,-15,1070,15321,-218,55545
4169775,411,-15,1070,15321,-218,55545
4190417,411,-15,1070,15321,-218,55545
4203184,-1546,216,973,15631,2883,103989
4270180,-1546,216,973,15631,2883,103989
4283166,-1353,599,1042,-18156,-12446,13203
4291465,-1353,599,1042,-18156,-12446,13203
4365481,217,126,1191,-14166,319,-107086
4371228,217,126,1191,-14166,319,-107086
4394424,217,126,1191,-14166,319,-107086
4445474,1398,-99,866,-10150,638,-92535
4469084,1398,-99,866,-10150,638,-92535
4497383,1398,-99,866,-10150,638,-92535
4525466,1398,-99,866,15531,-27986,3968
4528342,1528,-619,726,15531,-27986,3968
4561846,1528,-619,726,15531,-27986,3968
4570278,1528,-619,726,15531,-27986,3968
4593472,1528,-619,726,15531,-27986,3968
4599153,1528,-619,726,15531,-27986,3968
4606819,-157,274,1098,31696,-31198,110998
4668714,-157,274,1098,31696,-31198,110998
4689357,-1746,776,1652,23012,8671,77507
4700208,-1746,776,1652,23012,8671,77507
4769121,-208,121,1014,-6693,36526,-45613
4800607,-208,121,1014,-6693,36526,-45613
4851655,495,-138,1004,2235,22491,-63433
4867609,495,-138,1004,2235,22491,-63433
4885700,495,-138,1004,2235,22491,-63433
4903718,495,-138,1004,2235,22491,-63433
4931800,424,-132,912,26145,15216,-24823
4968171,424,-132,912,26145,15216,-24823
5006677,424,-132,912,26145,15216,-24823
5011791,121,-22,892,-9935,2008,-14625
5066026,121,-22,892,-9935,2008,-14625
5094325,-38,-15,1134,-8461,-3451,-4908
5107728,-38,-15,1134,-8461,-3451,-4908
5166433,-38,-15,1134,-8461,-3451,-4908
5174315,-52,-47,1010,2353,9935,3963
5210685,-52,-47,1010,2353,9935,3963
5256632,-53,139,1012,67628,15780,12368
5267483,-53,139,1012,67628,15780,12368
5313646,-53,139,1012,67628,15780,12368
5336622,-112,452,859,139768,74935,31731
5365337,-112,452,859,139768,74935,31731
5416607,-266,849,727,121769,73985,51843
5465742,-266,849,727,121769,73985,51843
5499144,-310,1064,930,-84665,-1645,-61219
5517650,-310,1064,930,-84665,-1645,-61219
5561043,-310,1064,930,-84665,-1645,-61219
5564370,-310,1064,930,-84665,-1645,-61219
5579910,-95,-255,551,-143342,-8435,-132111
5595865,-95,-255,551,-143342,-8435,-132111
5619410,-95,-255,551,-143342,-8435,-132111
5660251,-87,-633,584,-98665,-50452,-32567
5663446,-87,-633,584,-98665,-50452,-32567
5722370,-87,-633,584,-98665,-50452,-32567
5742795,-60,-49,758,107594,-44891,88462
5763855,-60,-49,758,107594,-44891,88462
5822780,-212,782,1104,140682,-20028,115622
5864256,-212,782,1104,140682,-20028,115622
5890005,-212,782,1104,140682,-20028,115622
5902919,-242,746,1266,-21643,-31255,-19451
5926530,-242,746,1266,-21643,-31255,-19451
5962267,-242,746,1266,-21643,-31255,-19451
5985462,-3,-234,479,-141557,-8999,-129618
6029489,-3,-234,479,-141557,-8999,-129618
6062676,-3,-234,479,-141557,-8999,-129618
6065454,195,-175,386,17364,-49297,13956
6132450,195,-175,386,17364,-49297,13956
6147771,52,877,1067,143255,-44310,88357
6163727,52,877,1067,143255,-44310,88357
6227754,-140,701,963,115565,7638,31001
6233500,-140,701,963,115565,7638,31001
6261581,-140,701,963,115565,7638,31001
6307744,109,745,1001,-89967,-63249,15120
6336460,109,745,1001,-89967,-63249,15120
6361990,109,745,1001,-89967,-63249,15120
6390288,110,374,1031,-143342,-8636,21730
6439420,110,374,1031,-143342,-8636,21730
6462399,110,374,1031,-143342,-8636,21730
6470281,100,265,865,-117184,31259,14083
6542382,100,265,865,-117184,31259,14083
6552597,157,-39,983,-30555,9721,-7975
6560898,157,-39,983,-30555,9721,-7975
6563675,157,-39,983,-30555,9721,-7975
6597628,157,-39,983,-30555,9721,-7975
6633932,-43,67,1203,19079,65231,11873
6644783,-43,67,1203,19079,65231,11873
6660105,-43,67,1203,19079,65231,11873
6713925,-188,9,884,-21363,126800,-2423
6747744,-188,9,884,-21363,126800,-2423
6760514,-188,9,884,-21363,126800,-2423
6793917,-198,135,988,4847,26600,-1798
6850705,-198,135,988,4847,26600,-1798
6860921,-198,135,988,4847,26600,-1798
6876459,-109,118,529,-3727,-82718,10228
6894967,-109,118,529,-3727,-82718,10228
6953819,-109,118,529,-3727,-82718,10228
6956378,651,133,1005,10976,-141872,13833
6959575,651,133,1005,10976,-141872,13833
7038916,862,-163,1724,-6234,-80220,17386
7054872,862,-163,1724,-6234,-80220,17386
7059985,862,-163,1724,-6234,-80220,17386
7118908,635,222,1260,-39515,122806,5652
7157831,635,222,1260,-39515,122806,5652
7201440,47,-108,459,-46908,143342,-27295
7258230,47,-108,459,-46908,143342,-27295
7281425,-584,-117,166,-3880,98214,25007
7358628,-584,-117,166,-3880,98214,25007
7361405,302,135,227,-2642,-111230,7179
7443715,852,-122,1696,9786,-142415,-1736
7457120,852,-122,1696,9786,-142415,-1736
7462450,852,-122,1696,9786,-142415,-1736
7523710,675,-132,1659,-13006,-10097,13562
7557530,675,-132,1659,-13006,-10097,13562
7565412,675,-132,1659,-13006,-10097,13562
7599367,675,-132,1659,-13006,-10097,13562
7605047,456,106,848,26880,141054,-8806
7656732,456,106,848,26880,141054,-8806
7667166,456,106,848,26880,141054,-8806
7687590,-459,-179,212,9375,131110,-21218
7757137,-459,-179,212,9375,131110,-21218
7767571,-168,-18,223,6313,-57754,3815
7849879,672,136,1506,46025,-139295,13295
7855626,672,136,1506,46025,-139295,13295
7868613,672,136,1506,46025,-139295,13295
7901798,672,136,1506,46025,-139295,13295
7930025,436,-117,1460,-12534,3193,40845
7956186,436,-117,1460,-12534,3193,40845
7971725,436,-117,1460,-12534,3193,40845
8010015,154,129,721,8207,128786,35297
8056593,154,129,721,8207,128786,35297
8074683,154,129,721,8207,128786,35297
8092556,24,148,988,-4458,47061,5718
8154448,24,148,988,-4458,47061,5718
8172539,88,416,810,-20216,2633,-106859
8175733,88,416,810,-20216,2633,-106859
8254855,311,-141,1038,-26241,-38701,-143342
8278685,311,-141,1038,-26241,-38701,-143342
8334840,360,-350,1234,33460,-51095,-111650
8355901,360,-350,1234,33460,-51095,-111650
8381650,360,-350,1234,33460,-51095,-111650
8414835,360,-350,1234,-13120,-3097,24268
8417712,556,-299,1271,-13120,-3097,24268
8453769,556,-299,1271,-13120,-3097,24268
8484620,556,-299,1271,-13120,-3097,24268
8497387,163,279,872,-34693,113308,137055
8554176,163,279,872,-34693,113308,137055
8567163,163,279,872,-34693,113308,137055
8578146,52,252,993,-19678,83037,143342
8586446,52,252,993,-19678,83037,143342
8599216,52,252,993,-19678,83037,143342
8653385,52,252,993,-19678,83037,143342
8658716,-267,102,892,10311,49096,99820
8687432,-267,102,892,10311,49096,99820
8741033,-197,389,918,58581,-19508,-91778
8754436,-197,389,918,58581,-19508,-91778
8790389,-197,389,918,58581,-19508,-91778
8821022,272,289,932,66491,-103250,-143342
8852289,272,289,932,66491,-103250,-143342
8893348,272,289,932,66491,-103250,-143342
8901012,272,289,932,109462,-136823,-108666
8903889,395,-630,1294,109462,-136823,-108666
8906765,395,-630,1294,109462,-136823,-108666
8952859,395,-630,1294,109462,-136823,-108666
8983711,410,-104,1280,4414,-36513,83308
8994562,410,-104,1280,4414,-36513,83308
9053268,410,-104,1280,4414,-36513,83308
9063702,343,608,837,-37248,66675,143307
9097522,343,608,837,-37248,66675,143307
9146021,47,205,916,6505,80220,127067
9151768,47,205,916,6505,80220,127067
9200483,47,205,916,6505,80220,127067
9226013,166,532,961,-29815,6641,-63756
9252177,166,532,961,-29815,6641,-63756
9303444,166,532,961,-29815,6641,-63756
9308556,524,-21,999,-21402,-67335,-143338
9350031,524,-21,999,-21402,-67335,-143338
9388539,534,-796,1219,65043,-73911,-84065
9404493,534,-796,1219,65043,-73911,-84065
9450440,534,-796,1219,65043,-73911,-84065
9468532,551,-119,1135,-7175,34496,111615
9507455,551,-119,1135,-7175,34496,111615
9550849,324,535,813,35813,116020,143342
9569576,324,535,813,35813,116020,143342
9600977,324,535,813,35813,116020,143342
9609208,324,535,813,35813,116020,143342
9632186,-126,499,954,36728,107152,114419
9650692,-126,499,954,36728,107152,114419
9709616,-126,499,954,36728,107152,114419
9712175,0,334,898,-875,-18851,-86725
9748550,0,334,898,-875,-18851,-86725
9794715,331,-128,1158,1181,-115513,-143338
9810670,331,-128,1158,1181,-115513,-143338
9848963,331,-128,1158,1181,-115513,-143338
9874711,224,-490,1023,-14354,-61079,-98752
9911082,224,-490,1023,-14354,-61079,-98752
9913787,224,-490,1023,-14354,-61079,-98752
9949525,224,-490,1023,-14354,-61079,-98752
9954854,146,106,1000,-13693,-16743,44148
10016747,146,106,1000,-13693,-16743,44148
10037172,131,223,880,18423,23699,50478
10048023,131,223,880,18423,23699,50478
10117156,150,-87,1151,1684,-5131,5293
10148425,150,-87,1151,1684,-5131,5293
10199691,157,61,1049,4108,1426,11401
10220750,157,61,1049,4108,1426,11401
10248832,157,61,1049,4108,1426,11401
10279682,150,-37,1070,2883,5910,892
10323711,150,-37,1070,2883,5910,892
10349238,150,-37,1070,2883,5910,892
10362224,108,65,994,-752,5998,6304
10426668,108,65,994,-752,5998,6304
10441990,115,50,1032,1373,3294,3679
10447738,115,50,1032,1373,3294,3679
10524526,137,23,1009,-433,3508,170
10527720,137,23,1009,-433,3508,170
10548146,137,23,1009,-433,3508,170
10571339,137,23,1009,-433,3508,170
10602737,125,31,1033,-323,-415,2388
10629472,125,31,1033,-323,-415,2388
10647346,125,31,1033,-323,-415,2388
