# IKS01A3 
 
time[us],acc_x[mg],acc_y[mg],acc_z[mg],gyro_x[mdps],gyro_y[mdps],gyro_z[mdps]
139843000,711,-510,-193,-10595,16061,-57145
139862000,829,-443,-171,-7175,17129,-61725
139881000,905,-325,-237,-427,13862,-79007
139900000,823,-238,-274,12946,11709,-63389
139919000,809,-270,-195,20106,12335,-29389
139938000,801,-327,-107,28198,12687,18870
139957000,854,-409,-71,31083,10427,58106
139976000,917,-500,-58,32305,5312,76809
139995000,917,-558,-102,31526,1389,74152
140014000,893,-611,-113,30610,-1587,61190
140033000,746,-573,-194,32870,-809,50549
140052004,611,-475,-209,35954,488,53572
140071000,527,-285,-214,45969,2732,73312
140090000,486,-29,-273,72793,13832,80412
140109000,565,-152,-24,111557,23770,116458
140128000,447,-190,125,142824,35053,199755
140147000,488,-392,299,169496,47908,302503
140166000,-393,-950,328,172427,61053,382793
140185000,-45,-1502,666,102610,64000,321694
140204000,1168,-3293,1337,34122,29358,71725
140223000,1132,-2948,643,-64763,8213,-173541
140242000,604,-1229,507,-104473,26809,-172610
140261000,633,-1050,433,-137801,46427,-62503
140280000,862,-706,261,-145328,26946,-34732
140299000,935,50,-111,-95679,16213,-66045
140318000,756,179,-659,-14656,-4503,-47099
140337000,662,-181,-247,25282,-21419,104732
140356000,433,-805,317,25709,-29587,287068
140375000,-105,-1426,599,-5358,-8702,321832
140394000,372,-2301,741,-68106,8213,175709
140413000,799,-2631,602,-128412,2335,-75587
140432000,193,-1592,458,-160503,14732,-171832
140451000,47,-1065,244,-182992,25343,-106366
140470000,286,-1060,79,-190503,29511,-51664
140489000,451,-847,-39,-180091,22091,-44656
140508000,590,-604,-103,-161389,5541,-61328
140527000,614,-444,-210,-142824,-9587,-79022
140546000,477,-371,-288,-121236,-20198,-71557
140565000,369,-345,-288,-103572,-18946,-43541
140584000,391,-382,-308,-87755,-16488,-12091
140603000,471,-421,-288,-74259,-14916,1251
140622000,528,-490,-279,-61572,-16305,-9419
140641000,522,-556,-302,-49068,-16106,-38671
140660000,542,-600,-319,-35877,-18152,-94946
140679000,514,-574,-325,-18320,-12809,-159557
140698000,475,-398,-386,2564,-11053,-224641
140717000,291,160,-473,38702,3541,-271542
140736000,105,914,-862,87969,30977,-250244
140755000,-29,1444,-1075,149068,57648,-128916
140774000,31,684,-496,198091,80793,37175
140793000,224,224,-194,262427,100778,142809
140812000,304,-526,118,296396,127984,187328
140831000,943,-1493,859,278396,119343,138732
140850000,838,-2170,1348,243862,127389,62488
140869000,1259,-3511,1986,63954,44916,-95557
140888000,1301,-3129,1564,-88778,6473,-120748
140907000,1174,-1505,180,-143236,-1099,-97862
140926000,948,-147,-65,-139572,-27358,-60427
140945000,761,1312,-1053,-56305,-2229,3053
140964000,802,1540,-1546,49160,-37816,127145
140983000,774,-350,-624,121419,-24687,250687
141002000,589,-980,-168,151557,-41160,318687
141021000,-187,-1619,684,91221,-42656,356625
141040000,309,-3090,1667,-13251,-41022,242061
141059000,557,-3211,668,-152396,-19847,66366
141078000,609,-1847,71,-179541,15740,-98580
141097000,400,-819,-81,-188305,27129,-119816
141116000,419,-631,-232,-177908,22717,-66229
141135000,431,-859,-404,-164717,23282,-55877
141154000,633,-827,-344,-134946,16030,-92778
141173000,774,-607,-177,-109053,2595,-109801
141192000,696,-498,-221,-90793,-7022,-75404
141211000,680,-680,-170,-92717,-10076,-13145
141230000,682,-746,-214,-92488,-9022,18045
141249000,652,-765,-263,-92381,-9389,8748
141268000,586,-821,-278,-88885,-8229,-31893
141287000,559,-788,-255,-81755,-3053,-80122
141306000,429,-669,-235,-73480,1297,-98152
141325000,395,-565,-227,-68748,9145,-91312
141344000,484,-562,-263,-60595,8320,-96488
141363000,531,-588,-312,-55480,15526,-121893
141382000,575,-557,-347,-47190,13587,-143175
141401000,577,-365,-350,-42015,10213,-154396
141420000,477,-48,-411,-21328,4885,-152244
141439000,302,280,-607,5297,1938,-147465
141458000,183,737,-741,52900,10427,-137496
141477000,-43,1350,-887,125328,27557,-62030
141496000,-199,1193,-644,189267,41709,116977
141515000,-43,571,73,240961,30992,376564
141534000,176,-277,366,297114,-16793,500259
141553000,-400,-2662,907,243664,-62839,500259
141572000,-511,-2985,1146,150488,-69007,500259
141591000,127,-2984,1814,33572,-18961,63954
141610000,85,-3655,509,-109038,74213,-283190
141629000,352,-1492,157,-105496,70198,-332549
141648000,67,-30,-468,-101160,70091,-238870
141667001,334,1478,-1403,-41740,67862,-144198
141686000,775,516,-1416,50977,49709,7267
141705000,1291,255,-218,147725,-9389,90534
141724000,283,-684,-257,174396,-34900,275175
141743000,-581,-2241,615,88961,-58717,330641
141762000,332,-3555,1801,-30167,-44824,176580
141781000,596,-3222,653,-134641,351,-108641
141800000,130,-1650,86,-155496,22793,-215328
141819000,49,-672,-106,-151633,39526,-174106
141838000,218,-492,-473,-144473,50763,-79480
141857000,379,-682,-609,-126595,37419,-27083
141876000,582,-788,-477,-97526,24335,-36213
141895000,692,-535,-365,-75038,4427,-51923
141914000,603,-624,-325,-61862,-15190,-31725
141933000,451,-890,-280,-63053,-20702,2870
141952000,394,-938,-288,-64473,-15755,25786
141971000,417,-979,-268,-67664,-10610,24045
141990000,385,-947,-283,-67954,-5511,671
142009000,345,-973,-291,-68473,-1465,-26381
142028000,317,-980,-312,-69816,3068,-40045
142047000,327,-837,-341,-68717,6824,-36641
142066000,339,-741,-402,-70122,11022,-21877
142085000,453,-806,-390,-70671,11557,-23603
142104000,528,-837,-408,-69419,11145,-54564
142123000,504,-750,-453,-64580,12076,-88977
142142000,490,-612,-445,-57007,13114,-110137
142161000,510,-504,-511,-50992,10671,-114061
142180000,494,-441,-565,-44412,8885,-111236
142199000,515,-404,-599,-32946,9404,-112793
142218000,503,-348,-625,-22351,10351,-102259
142237000,474,-171,-630,-5740,13587,-91083
142256000,352,179,-761,17496,21496,-76641
142275000,219,785,-996,64503,39572,-89160
142294000,77,1526,-1270,141511,70290,-80106
142313000,-15,1110,-818,204351,89648,34152
142332001,322,412,60,241969,74625,284076
142351000,757,-512,583,288992,-3190,500259
142370000,-652,-2539,690,233709,-32488,500259
142389000,-722,-4000,1416,97083,-53801,323419
142408000,1011,-4000,1444,-50534,-14000,-257282
142427000,367,-2042,149,-126305,23755,-336503
142446002,-92,435,-400,-90183,41954,-298381
142465000,147,1410,-1903,-38320,53633,-121145
142484000,472,-28,-1047,10076,52702,63877
142503000,1266,-335,-358,93129,20045,107496
142522000,569,-618,-414,103007,-5022,212137
142541000,-196,-1462,133,43770,-37450,245465
142560000,504,-3069,1057,-23175,-43160,124656
142579000,566,-2279,415,-93267,-26992,-63297
142598000,360,-636,-422,-75923,-3190,-124671
142617000,114,-4,-825,-58809,14305,-84259
142636000,165,-936,-797,-57664,25236,17267
142655000,447,-1354,-289,-60015,22870,10610
142674000,544,-993,-217,-48702,23038,-26366
142693000,543,-761,-193,-48748,2961,-35633
142712000,540,-1037,-206,-64610,-11541,-20167
142731000,451,-1191,-261,-73587,-12870,-14381
142750000,367,-963,-257,-73358,-5297,-13160
142769000,418,-762,-298,-74045,-946,-6000
142788000,464,-800,-329,-76320,-534,-4702
142807002,430,-885,-347,-76244,1984,-9053
142826000,417,-840,-334,-75465,4977,-16351
142845000,371,-767,-323,-73526,7603,-17587
142864000,375,-735,-330,-73053,10702,-14076
142883000,423,-714,-393,-70152,12671,-16961
142902000,393,-723,-388,-70198,14000,-15603
142921000,344,-717,-436,-67389,18091,-19847
142940000,398,-621,-467,-60366,21007,-38839
142959000,464,-535,-511,-52427,22000,-61419
142978000,452,-484,-571,-44503,23725,-78549
142997000,456,-429,-666,-34458,29480,-85129
143016000,592,-363,-726,-21740,31374,-105557
143035000,672,-219,-814,-8290,33236,-133007
143054000,646,73,-862,11847,29832,-146183
143073000,619,364,-989,43816,31267,-150458
143092000,557,508,-1045,86213,38213,-161435
143111000,475,751,-1024,137496,56702,-136396
143130000,512,738,-862,188519,64992,-68931
143149000,447,510,-425,230778,69465,62045
143168000,450,435,-51,291847,54549,251740
143187000,484,-232,644,333404,1709,500259
143206000,-427,-2100,1242,300458,-52931,500259
143225000,-874,-4000,2191,157709,-102229,382931
143244000,1082,-4000,1858,-28091,-27557,-65954
143263000,-187,-2287,87,-155358,31679,-335022
143282000,-77,461,-191,-104748,86167,-359404
143301000,199,983,-1461,-45923,83862,-204793
143320000,837,-253,-638,1587,57770,17587
143339000,1010,-312,-251,58961,22625,136137
143358000,310,-822,9,42748,-1358,163022
143377000,469,-1716,575,9923,-32061,129328
143396000,634,-2018,706,-58732,-27984,13038
143415000,467,-938,-201,-51358,-839,-49114
143434000,325,-255,-592,-30381,18366,-45847
143453000,377,-729,-389,-24000,22183,23160
143472000,386,-1047,-109,-17572,29679,48503
143491000,227,-953,68,-14931,36106,30809
143510000,225,-1015,188,-26381,40091,13419
143529000,484,-1194,199,-46870,46076,-14473
143548000,492,-1100,-16,-58763,49511,-47007
143567000,322,-854,-65,-58549,57083,-68763
143586000,259,-718,1,-51175,71801,-73267
143605000,242,-760,-32,-47328,84396,-65832
143624000,379,-716,123,-41328,86061,-62061
143643000,270,-694,6,-37160,98137,-46488
143662000,328,-696,104,-34152,99465,-29877
143681000,318,-835,66,-34793,105984,-18030
143700000,439,-858,163,-36992,106977,-15114
143719000,428,-891,201,-38717,105893,-10809
143738000,532,-879,197,-40229,106412,-6198
143757000,528,-964,136,-44442,100824,-1145
143776001,552,-962,108,-48687,98458,15618
143795000,690,-1055,92,-56015,92106,29572
143814000,809,-1081,105,-60702,82961,23221
143833000,708,-1015,-12,-59603,78061,931
143852000,703,-873,-80,-55007,81969,-8396
143871000,1104,-955,-48,-58732,68778,-35083
143890000,1190,-897,-33,-60519,50885,-72045
143909000,1026,-721,-221,-60229,35801,-98549
143928000,803,-617,-344,-57358,29847,-83786
143947001,1085,-455,-244,-52137,26335,-53618
143966000,1288,-451,-196,-47374,10198,-58641
143985000,1158,-510,-278,-42015,-1694,-71389
144004000,1086,-612,-253,-33694,-13404,-86671
144023000,1156,-598,-184,-29694,-24702,-78290
144042000,1098,-423,-245,-30595,-35954,-35053
144061000,982,-466,-264,-31083,-45847,412
144080000,986,-451,-286,-22732,-47923,-2595
144099000,960,-179,-317,-2809,-52091,-46778
144118000,701,506,-583,40870,-43190,-137297
144137000,333,1408,-706,103038,-26198,-111969
144156000,200,1324,-722,155801,-33038,71603
144175000,589,373,39,166687,-67755,367969
144194000,852,-1867,179,136091,-129297,500259
144213000,7,-3287,741,85816,-163160,412916
144232000,126,-3482,1233,-20748,-87648,8702
144251000,138,-3214,564,-109114,-36198,-246702
144270000,-142,-663,-208,-48412,18473,-255022
144289000,-286,286,-1172,-37633,30030,-165786
144308000,190,757,-579,-10122,26427,37511
144327000,843,221,-334,19083,16748,145480
144346000,732,-726,-59,24992,-8076,137129
144365000,340,-1583,118,6396,-13297,83496
144384000,479,-2026,400,-15343,-7572,-21862
144403000,518,-1592,105,-45633,2152,-93480
144422000,431,-1306,-278,-61679,6580,-88763
144441000,331,-1003,-321,-70473,19572,-65206
144460000,297,-765,-361,-72931,30870,-32763
144479000,350,-703,-296,-70503,45145,-12030
144498000,523,-750,-184,-69633,52625,-10854
144517000,494,-708,-221,-64274,59770,-25557
144536000,364,-651,-231,-62396,70534,-24656
144555000,500,-664,-144,-60580,82198,-13862
144574000,663,-725,-95,-60412,84061,-21938
144593000,707,-693,-103,-52778,82992,-43389
144612000,666,-613,-149,-43022,80732,-70290
144631000,600,-509,-197,-35114,81862,-68442
144650000,542,-513,-146,-32259,85129,-32412
144669000,705,-518,-67,-30992,88030,-1114
144688000,864,-481,-69,-25877,83816,5435
144707000,891,-486,-108,-16305,74503,-10274
144726000,830,-440,-148,-4610,66595,-30610
144745000,746,-298,-166,9374,63664,-29068
144764000,833,-77,-159,26885,61083,-26870
144783000,748,386,-221,64748,56992,-44702
144802000,382,975,-354,119221,59969,-19847
144821000,102,1081,-313,160687,67496,97618
144840000,222,777,-18,191221,50167,321297
144859000,532,-520,297,204931,-3419,500259
144878000,680,-2644,467,159007,-70503,500259
144897000,388,-4000,1198,94580,-90687,187679
144916000,670,-3612,1200,29038,-53832,-160854
144935000,437,-2226,435,-37267,-16076,-205419
144954000,207,-1112,-104,-22824,-3877,-146229
144973000,178,-608,-312,-47770,4305,-24320
144992000,700,-447,-26,-33786,-106,54473
145011000,1060,-706,130,-30137,-14931,47160
145030000,947,-830,206,-30045,-33847,-8229
145049000,736,-918,156,-31160,-48076,-39786
145068000,690,-1205,243,-41450,-59648,-51465
145087000,577,-1202,234,-45022,-63450,-40015
145106000,544,-1358,206,-63908,-67221,-9969
145125000,448,-1327,163,-72122,-63893,-16290
145144000,396,-1157,61,-76473,-56580,-44305
145163000,319,-1029,0,-85725,-47786,-40137
145182000,346,-842,-102,-90458,-40992,3984
145201000,340,-823,-111,-98931,-36427,60137
145220000,458,-688,-215,-96809,-33862,99343
145239000,557,-705,-249,-92885,-36763,65633
145258000,640,-948,-239,-88671,-43129,-24183
145277000,588,-774,-181,-73206,-35389,-137282
145296000,458,-644,-246,-63022,-28885,-206427
145315000,305,-286,-251,-42870,-18977,-191801
145334002,271,-150,-264,-33984,-10458,-90473
145353000,317,-113,-254,-15312,-3038,33129
145372000,542,-27,-168,9450,-12503,182824
145391000,502,-67,-133,35648,-29160,316030
145410000,346,-102,-248,69725,-34763,386137
145429000,352,-598,-207,78656,-42839,202854
145448000,222,-1007,-154,109435,-13862,-69190
145467000,300,-1356,-54,99770,25450,-299145
145486000,566,-1276,-126,104244,58412,-461542
145505000,367,-439,-208,111022,74702,-465221
145524000,255,552,-252,114183,64412,-143740
145543000,243,-298,-190,82122,47038,262931
145562000,299,-939,100,92076,7557,500259
145581000,640,-1611,164,104992,-44351,500259
145600000,633,-2830,62,31572,-78748,385404
145619000,657,-2178,832,34076,-57145,-50809
145638000,172,-2146,85,-47083,-13419,-352274
145657000,51,-841,-102,-6335,18580,-346412
145676000,-317,-958,-567,-27557,27145,-129206
145695000,73,-377,-175,-25068,23709,122351
145714000,816,-496,-53,-7297,-1511,164091
145733000,580,-1110,88,-5526,-21984,7358
145752001,407,-980,243,6793,-21160,-129083
145771000,351,-626,47,7343,-15374,-137938
145790000,255,-1011,-31,-9358,-16122,-28229
145809000,305,-1356,18,-20977,-10198,78610
145828000,489,-1582,29,-40854,-11526,80015
145847000,662,-1491,63,-51557,-14564,12442
145866000,658,-1462,0,-71618,-20015,-48549
145885000,542,-1351,-38,-85389,-21435,-79938
145904000,443,-1144,-113,-91435,-19129,-92381
145923000,394,-1003,-98,-95786,-17725,-85236
145942000,416,-887,-63,-97312,-16900,-73740
145961000,412,-812,-100,-92717,-13221,-83068
145980000,408,-762,-76,-89557,-12106,-85938
145999000,396,-719,-92,-83129,-9083,-81877
146018000,397,-716,-130,-80442,-10641,-67801
146037000,434,-661,-151,-72717,-10244,-50580
146056000,450,-623,-209,-64610,-9175,-43923
146075000,501,-661,-244,-59679,-8427,-41022
146094000,551,-665,-282,-53557,-6610,-40412
146113000,563,-685,-298,-49908,-4259,-38030
146132000,545,-591,-355,-44610,-381,-39435
146151000,480,-450,-363,-35679,4198,-34625
146170001,548,-383,-357,-25969,7801,-34015
146189000,580,-287,-363,-10366,8809,-36152
146208000,462,93,-382,17664,17312,-40580
146227002,365,322,-494,51114,25221,-32992
146246000,321,577,-364,88427,32473,28824
146265000,236,572,-294,121755,34625,137435
146284000,284,441,-161,160534,19022,307435
146303000,303,-244,-21,175389,-31251,500259
146322000,256,-1863,293,145618,-94061,500259
146341000,-195,-3145,161,95801,-101694,358778
146360000,-140,-2365,737,89969,-45221,-69923
146379000,55,-2608,127,-8045,18900,-323251
146398000,333,-1503,-43,14290,31557,-359755
146417000,145,-545,-539,20625,24702,-241740
146436000,-7,-434,-612,-8671,14290,13709
146455000,552,-673,-300,-2732,-1389,170610
146474000,859,-1219,-169,-2900,-24137,109770
146493000,677,-1563,-36,-16442,-38259,2671
146512000,585,-1782,72,-43847,-43557,-73251
146531000,477,-1703,-3,-73480,-43083,-91786
146550000,419,-1464,-208,-93221,-41358,-66076
146569000,453,-1346,-243,-108793,-40580,-43435
146588000,560,-1315,-176,-117984,-41786,-47541
146607000,590,-1185,-157,-120320,-41816,-84458
146626000,585,-1198,-142,-129526,-43816,-127847
146645000,551,-1088,-174,-132824,-43877,-152625
146664000,519,-970,-235,-139099,-44778,-148702
146683000,523,-812,-312,-141908,-44809,-138061
146702000,558,-697,-412,-144213,-46488,-126778
146721000,576,-574,-448,-141358,-47145,-127068
146740000,670,-490,-516,-132381,-46549,-155435
146759000,751,-355,-611,-118931,-46534,-205694
146778000,775,-279,-589,-97954,-52580,-263542
146797000,597,20,-714,-78641,-50290,-300931
146816000,375,513,-799,-46534,-42015,-289160
146835000,304,932,-867,-2732,-34549,-242916
146854000,324,797,-899,34900,-25221,-166351
146873000,399,462,-824,63374,-12396,-119251
146892000,477,344,-723,93312,3648,-101038
146911000,475,446,-722,124488,20580,-74916
146930000,389,463,-642,153160,32137,-24793
146949000,325,339,-538,180229,40106,23328
146968000,404,217,-328,205877,41145,57908
146987000,464,41,-120,234839,39664,89160
147006000,391,-14,27,272000,39755,129236
147025000,232,240,261,315862,24549,293160
147044000,238,-372,764,335877,-16549,450977
147063000,276,-1310,920,324122,-42824,449664
147082000,-180,-2391,1131,258702,-46885,310045
147101000,-46,-3249,1699,127511,-30610,135541
147120000,597,-4000,763,-34595,-12916,-127908
147139000,302,-1593,437,-113068,12885,-204335
147158000,-18,826,-695,-84290,45786,-197908
147177000,354,1109,-1724,12106,52824,-78091
147196000,1010,-793,-290,81740,33740,74870
147215000,1066,-1110,47,103282,3297,139129
147234000,216,-1456,65,44885,-2442,166977
147253000,565,-1827,611,-26259,-16213,41435
147272000,542,-1638,136,-63557,-10152,-103786
147291000,621,-641,-563,-42656,2198,-103725
147310000,394,-674,-550,-38320,8595,-19969
147329000,767,-1070,-135,-36152,4335,30274
147348000,717,-1275,-120,-36824,-2625,17847
147367001,304,-968,-151,-49236,18061,-13007
147386000,348,-666,-42,-57801,19129,-36366
147405000,657,-1022,35,-67633,10778,-37954
147424000,685,-1224,-108,-83282,6015,-52335
147443000,572,-987,-28,-87389,2076,-55129
147462000,544,-661,-107,-87068,1389,-33603
147481000,590,-583,-227,-85633,-824,-11435
147500000,659,-617,-390,-83175,1404,-8946
147519000,735,-806,-452,-79572,-2549,-19083
147538000,768,-780,-439,-75938,-1954,-31297
147557000,761,-743,-573,-70977,-5404,-43801
147576000,809,-649,-655,-64610,-10061,-50625
147595000,801,-583,-822,-60412,-12809,-51572
147614000,842,-629,-851,-53312,-17664,-47969
147633000,851,-664,-864,-46992,-22244,-46167
147652000,820,-549,-899,-38687,-25740,-40992
147671000,777,-425,-918,-28824,-26106,-27450
147690000,737,-427,-888,-15664,-28519,-17847
147709000,703,-377,-795,-366,-27496,-23664
147728000,609,-302,-879,22488,-22061,-43969
147747000,622,-202,-834,51145,-15526,-82656
147766000,537,-118,-793,86992,-4183,-127755
147785000,409,275,-771,139160,15923,-164167
147804000,297,370,-537,195709,39114,-124442
147823000,457,187,133,247114,49755,-24030
147842000,614,-228,843,282824,33190,122213
147861000,44,-981,1226,271068,33328,194625
147880000,559,-1549,1114,173862,-8106,125343
147899000,348,-2785,557,8473,-40885,72381
147918000,702,-2708,-62,-151190,1465,-71801
147937000,478,-592,-102,-155557,30366,-183129
147956000,382,787,-636,-86244,43526,-158519
147975000,709,230,-414,-11893,43312,-39832
147994000,780,-128,-159,37694,26870,66916
148013000,580,-213,-152,35603,16442,156473
148032001,767,-1099,81,9664,-16778,145801
148051000,946,-1649,-56,-33908,-18748,51603
148070000,843,-887,-281,-39022,870,-31114
148089001,773,-364,-338,-27832,6015,-12137
148108000,881,-690,-194,-22549,-900,46244
148127000,636,-1086,-187,-32671,1755,77709
148146000,607,-1163,-30,-62137,-4030,55725
148165000,807,-1385,103,-100961,-11526,30000
148184000,839,-1367,22,-133618,-17923,9740
148203000,736,-1152,-92,-149923,-13251,-6519
148222000,678,-918,-108,-155572,-11068,-17389
148241000,577,-702,-225,-155541,-9480,-21770
148260000,558,-582,-310,-149557,-8732,-19389
148279001,612,-694,-397,-144045,-6534,-19694
148298000,689,-687,-415,-138137,-5862,-27938
148317000,700,-617,-416,-134839,-8335,-24732
148336000,728,-561,-369,-133206,-11099,-19893
148355000,709,-511,-495,-123740,-17786,-35496
148374000,671,-548,-552,-121740,-18106,-47648
148393000,695,-434,-513,-116091,-21251,-70503
148412000,685,-406,-507,-110564,-29145,-86381
148431000,598,-231,-745,-100854,-28061,-116549
148450000,575,-50,-836,-86015,-21969,-139068
148469000,471,317,-766,-61694,-18076,-138641
148488000,269,695,-979,-26152,-8106,-138381
148507000,132,1280,-1227,16061,15343,-103404
148526000,189,1228,-1234,74335,33175,-64488
148545000,186,1005,-1056,122366,57496,7343
148564000,234,917,-752,167862,68503,110900
148583000,216,759,-589,221374,70091,253328
148602000,500,239,-187,263114,37847,419771
148621000,685,-1629,227,247740,-10244,361847
148640000,467,-3349,389,173312,-15282,218320
148659000,818,-3794,1724,39251,-412,-85160
148678000,578,-2533,751,-76351,37343,-197709
148697000,645,-586,-562,-71083,34412,-168381
148716000,284,825,-1463,-50946,65038,-127022
148735000,358,481,-1462,-1129,19419,11847
148754003,770,-18,-609,29648,30030,84442
148773000,735,-374,-583,55374,22977,118717
148792000,328,-847,-160,46809,27770,120320
148811000,158,-1165,150,29435,37801,70564
148830000,447,-1600,260,7160,59114,-7160
148849000,658,-1254,112,-27496,70244,-51664
148868000,597,-956,-137,-49160,71801,-36717
148887000,334,-728,-246,-60061,79007,-10732
148906000,387,-758,-176,-62320,83984,18534
148925000,666,-981,-49,-67633,81496,27740
148944000,896,-995,-94,-71297,70015,21282
148963000,776,-906,-338,-78106,64656,33954
148982000,711,-886,-312,-86961,59969,59801
149001000,946,-1044,-267,-92106,53877,61221
149020000,931,-997,-373,-94030,49068,29419
149039000,752,-807,-524,-94671,47801,9007
149058000,731,-736,-534,-93404,50839,-3709
149077000,931,-611,-506,-90778,53572,-15206
149096000,1076,-491,-448,-87007,43404,-42931
149115000,898,-408,-616,-90167,40015,-54778
149134000,689,-368,-693,-86381,45832,-44778
149153000,823,-235,-531,-77603,51343,-32427
149172001,838,-259,-419,-68854,53374,-35206
149191000,771,-273,-427,-61587,60824,-48152
149210000,1010,-295,-339,-53725,60946,-86427
149229000,960,-118,-416,-43297,67129,-107664
149248000,882,17,-348,-26549,65053,-118916
149267000,709,240,-382,-3862,74061,-106885
149286000,681,405,-342,20580,78229,-65557
149305000,787,296,-267,45496,77847,-15358
149324000,971,36,-261,63511,75404,-4000
149343000,1025,136,-188,84427,70809,-10824
149362000,635,594,-339,118854,77114,7664
149381000,382,1222,-471,165679,86961,57206
149400000,361,1153,-357,215679,83709,121358
149419000,473,772,-36,248778,80992,229114
149438000,1059,-320,540,261847,24977,404763
149457000,1125,-2003,754,227984,-33328,430977
149476000,805,-3060,1112,197236,-56244,202824
149495000,1019,-3136,1488,96106,-26137,-75801
149514000,660,-2721,568,6793,17190,-203557
149533000,249,-793,-57,16122,54458,-148824
149552000,160,-28,-483,17038,75786,-40381
149571000,407,39,-343,24152,57908,74076
149590000,663,-36,127,63633,47358,120564
149609000,509,-659,322,64030,33480,89984
149628000,475,-1096,586,57374,20000,53419
149647000,403,-1059,544,46290,34427,748
149666000,432,-637,309,49419,53740,-1251
149685000,476,-531,344,52641,63786,25938
149704000,385,-431,349,69938,74290,73435
149723000,384,-576,340,81832,83755,102748
149742000,558,-576,545,92091,78702,110305
149761000,794,-749,672,94183,66396,94412
149780000,850,-1006,694,85160,55435,34519
149799000,670,-1039,657,79893,56854,-6625
149818000,650,-1017,624,65893,62595,-41038
149837000,869,-919,688,53190,54564,-72778
149856000,827,-805,648,45755,42931,-78015
149875000,733,-788,520,42305,40091,-77267
149894003,839,-682,507,44992,37358,-80351
149913000,837,-641,406,46229,30061,-110580
149932000,883,-572,410,48473,22778,-148687
149951000,795,-609,354,50442,31267,-205832
149970000,732,-421,406,58152,37465,-212152
149989000,662,-323,423,56458,45786,-183480
150008000,676,-218,474,60290,47969,-147816
150027000,688,13,634,70687,42595,-111129
150046000,777,67,779,82900,26274,-54137
150065000,827,-36,910,95618,-3938,1053
150084000,696,-131,831,105679,-31450,66473
150103000,615,-103,722,114564,-46519,130091
150122000,318,-182,732,120564,-67984,202442
150141000,150,-275,665,122656,-49419,215068
150160000,254,-520,655,136351,-17221,175206
150179000,594,-650,1069,144244,20335,90000
150198000,974,-829,1348,133389,49496,-12412
150217000,1044,-892,1493,89190,36625,-41175
150236000,223,-274,1048,18671,31099,63251
150255000,-357,214,1117,-28625,-3770,99938
150274000,553,-1093,1020,-87725,-48274,38977
150293000,848,-913,901,-117801,-27114,-143511
150312000,543,855,775,-78580,-4473,-151236
150331000,665,866,503,-50458,-18519,40885
150350000,799,284,651,-7923,-21450,181450
150369000,117,-186,625,9603,-20625,264122
150388000,525,-478,963,13938,-31862,185908
150407000,713,-1235,1045,-27526,-33587,33099
150426000,519,-722,818,-41832,-4916,-77053
150445000,628,-373,868,-52839,2854,-85694
150464000,663,-382,960,-66610,-9877,-42122
150483000,574,-572,1012,-81709,-20870,1511
150502000,358,-489,924,-97450,-23770,38885
150521000,480,-324,874,-102549,-33633,58824
150540000,619,-502,761,-108076,-37557,62580
150559000,670,-488,681,-101832,-30061,55221
150578000,567,-474,649,-99175,-22335,42946
150597000,536,-467,565,-93832,-10534,28824
150616000,625,-533,599,-88366,-7587,519
150635000,695,-591,650,-83770,-7053,-20595
150654000,698,-565,606,-79740,-8824,-30625
150673000,626,-510,534,-74656,-8274,-27618
150692000,658,-488,489,-70335,-7984,-23679
150711000,660,-493,444,-63526,-9954,-26809
150730000,712,-515,428,-55083,-13282,-39328
150749000,653,-528,375,-46183,-14946,-51282
150768000,625,-465,352,-36946,-12885,-52381
150787000,594,-460,268,-28870,-11725,-56977
150806000,655,-433,238,-19862,-9145,-66183
150825000,588,-328,182,-5572,-8763,-70152
150844000,480,-243,86,16671,-6412,-74412
150863000,419,-89,11,49832,9893,-97893
150882000,395,252,-14,92381,29603,-105877
150901000,459,502,31,145114,47511,-66396
150920000,420,236,466,183206,69190,18870
150939000,703,51,929,228503,73297,152778
150958000,472,-375,1494,236030,53343,335175
150977000,164,-905,2072,174885,15236,374045
150996000,561,-2299,2194,40488,-43801,178183
151015000,922,-2795,1004,-85221,-39877,-57541
151034001,786,-589,828,-107969,778,-168778
151053000,641,745,379,-75068,4961,-136687
151072000,575,322,85,-34641,9435,11114
151091000,774,-457,418,11618,-5496,70167
151110000,355,-316,373,45984,6061,82580
151129000,518,-577,842,18625,-26030,82351
151148000,667,-1086,1022,-15984,-37694,64366
151167000,580,-1112,845,-50992,-25511,12000
151186000,528,-682,587,-52916,-1801,-47801
151205000,485,-592,625,-53954,11603,-47816
151224000,453,-712,701,-56290,15221,-23251
151243000,186,-712,720,-63221,24427,-9312
151262000,95,-620,782,-72305,32091,-16961
151281000,260,-731,791,-81343,44167,-29068
151300000,314,-713,777,-87709,60610,-61160
151319000,291,-599,703,-89190,79251,-92381
151338000,301,-504,739,-92351,97938,-113175
151357000,279,-548,766,-95450,108335,-131526
151376000,115,-604,758,-98045,120748,-147587
151395000,118,-592,917,-99221,133267,-154442
151414000,306,-475,1030,-99633,137297,-141251
151433000,322,-353,1108,-100305,130885,-118412
151452000,160,-305,949,-100717,127923,-85221
151471000,130,-320,860,-97526,127847,-43938
151490000,381,-353,909,-88946,124137,-10015
151509000,538,-258,879,-75694,115114,4152
151528000,574,-228,742,-63832,100229,18045
151547000,602,-254,639,-53587,83969,34152
151566000,727,-269,569,-38427,64732,51557
151585000,626,-299,504,-19816,50106,69038
151604000,629,-328,385,-2564,39847,81389
151623000,793,-308,405,15007,23099,81969
151642000,839,-344,266,33221,778,58213
151661000,624,-181,96,59526,-3725,21221
151680000,593,258,-6,98396,-4809,22763
151699000,533,660,-55,149618,-4595,125511
151718000,547,273,421,174259,-22778,305969
151737000,614,-589,1023,191603,-60809,500259
151756000,-1010,-2337,1187,142458,-45374,500259
151775000,52,-3013,2280,22366,-44030,199404
151794000,498,-1864,1561,-8442,-21297,-131771
151813000,147,-765,1296,-42198,-1145,-205114
151832000,-79,-249,866,-21114,2351,-123022
151851000,-119,-500,768,-28137,20015,4229
151870000,317,-310,598,7740,1694,10641
151889000,137,56,631,11068,-21450,12015
151908000,169,-406,896,-732,-37206,2015
151927000,353,-565,943,-824,-34900,-65328
151946000,190,99,643,30244,-22961,-79007
151965000,246,-232,717,37251,-14244,-11923
151984000,120,-654,936,39984,-14030,60549
152003000,-262,-828,1130,18519,-7251,78748
152022000,87,-1054,1229,-13770,-21496,24442
152041000,312,-788,1093,-23053,-34396,-37221
152060000,180,-561,764,-28702,-26824,-23145
152079000,197,-724,705,-35770,-12259,-19374
152098000,182,-628,717,-27877,-7847,-26335
152117000,157,-623,804,-36137,-10488,-30580
152136000,301,-702,895,-47938,-23450,-38488
152155000,361,-693,880,-53633,-34427,-43740
152174003,315,-599,791,-53664,-39343,-29465
152193000,345,-571,750,-51419,-41801,-12152
152212000,426,-511,753,-48580,-48167,2702
152231000,497,-585,797,-51862,-60030,9679
152250000,501,-679,783,-51587,-68320,7633
152269000,497,-677,730,-50259,-72854,-4595
152288000,469,-606,711,-47328,-72458,-10931
152307000,466,-587,639,-45633,-71832,-20534
152326000,442,-604,638,-42656,-73801,-31190
152345000,392,-625,497,-38671,-70595,-62015
152364000,340,-578,512,-28122,-61618,-118061
152383000,347,-54,398,2458,-50763,-96870
152402000,-31,534,124,36595,-45938,69664
152421000,117,159,77,56534,-48183,270458
152440000,359,-545,542,80259,-60320,388946
152459000,219,-1479,795,44076,-59541,286045
152478000,139,-1861,1228,3572,-56809,80946
152497000,441,-1944,1300,-42183,-38671,-114473
152516000,89,-1138,1035,-73709,-23099,-118061
152535000,-56,-785,592,-82167,-1389,-62992
152554000,94,-604,383,-73633,8351,-15847
152573000,357,-561,397,-59328,3175,-4091
152592000,401,-415,438,-42152,-5450,-13511
152611000,452,-366,278,-24748,-12259,-33389
152630000,322,-60,261,1099,-13404,-20854
152649000,329,-236,269,15236,-15190,54229
152668000,377,-428,472,34778,-13862,129694
152687000,220,-680,487,41450,-3175,135328
152706000,249,-1291,820,21053,-12274,72198
152725000,562,-1787,1152,-11618,-13145,-53053
152744000,496,-950,909,-25282,-12809,-98534
152763000,228,-564,398,-34946,-10274,-29816
152782000,343,-548,271,-26961,-2870,50610
152801000,459,-785,373,-17557,-9374,83404
152820000,213,-947,433,-23297,-6396,64320
152839000,496,-1270,727,-48931,-19175,17343
152858000,606,-1365,772,-71099,-29236,-28458
152877000,406,-1170,534,-87404,-29022,-33038
152896000,402,-1033,424,-93450,-22961,-42503
152915000,512,-912,350,-90274,-21755,-73328
152934000,604,-855,338,-89954,-27709,-89496
152953000,664,-806,349,-89725,-37190,-79297
152972000,673,-724,300,-87847,-43954,-60396
152991000,687,-676,264,-85389,-49877,-44167
153010000,673,-602,215,-78824,-51694,-43664
153029000,656,-601,190,-69770,-51496,-55465
153048000,647,-541,178,-55770,-50061,-71465
153067000,596,-507,135,-44717,-49190,-74076
153086000,514,-441,39,-36732,-48061,-62732
153105000,410,-406,-67,-29893,-43541,-47038
153124000,437,-459,-61,-24610,-43022,-45770
153143000,418,-413,-84,-12366,-44702,-52015
153162000,349,-418,-13,-1465,-49389,-64732
153181000,235,-417,48,11007,-51725,-83435
153200000,213,-443,254,19450,-56534,-91053
153219000,135,-484,264,21038,-53358,-91083
153238000,54,-280,312,17358,-51511,-56335
153257000,-170,-25,183,13358,-50335,50854
153276000,-217,301,113,31312,-47465,220641
153295000,-166,168,76,54809,-48458,335801
153314002,-105,69,291,88213,-66091,419404
153333000,-187,-209,207,100290,-64946,468854
153352000,-100,-1208,312,83923,-67480,325496
153371000,-26,-2216,445,60381,-53251,38412
153390000,152,-2207,866,40503,-26076,-170931
153409000,103,-1925,837,2045,-1160,-212167
153428000,69,-1928,482,-39893,15145,-150519
153447000,262,-1772,238,-68809,26534,-132122
153466000,536,-1512,146,-75328,32244,-139404
153485000,923,-1427,143,-81755,19664,-189068
153504000,1008,-1141,134,-81389,5175,-204763
153523000,854,-969,49,-82015,-8305,-158488
153542000,764,-836,2,-82885,-16427,-98992
153561000,799,-833,-17,-87358,-17358,-78000
153580000,815,-669,-37,-73740,-16656,-98244
153599000,733,-406,-164,-53221,-11022,-119236
153618000,544,-104,-202,-36595,-6366,-85099
153637000,555,-80,-160,-16000,-6091,-13328
153656000,386,6,-139,6687,1358,106992
153675000,529,-232,-17,27816,-9267,252030
153694000,659,-970,32,28748,-26366,262946
153713000,814,-1519,95,21816,-31374,154809
153732001,827,-1781,237,3312,-32854,46595
153751000,756,-1733,215,-20580,-27725,-42076
153770000,657,-1489,56,-43175,-20473,-93160
153789001,579,-1244,-25,-62305,-14244,-94198
153808000,592,-1109,-84,-78076,-13145,-81145
153827000,657,-1013,-40,-84946,-14412,-86977
153846000,716,-795,-50,-78412,-17465,-112778
153865000,660,-658,-63,-74381,-25954,-132839
153884000,559,-571,-138,-63511,-30030,-164580
153903000,540,-427,-160,-46335,-29038,-195496
153922000,453,-234,-264,-26442,-23129,-200839
153941000,263,46,-383,-2488,-12030,-183251
153960000,-38,572,-576,39862,13465,-138748
153979000,-128,1133,-560,76671,36412,61160
153998000,90,480,-357,91068,28961,325542
154017000,511,-392,125,105038,-12458,500259
154036000,444,-1576,-99,113526,-48534,500259
154055000,-177,-3446,-72,48396,-105786,434015
154074000,763,-2829,755,16213,-60625,-68091
154093000,278,-2592,56,-63129,-13801,-361725
154112000,188,-579,-16,-12671,37404,-432015
154131000,102,281,-685,10366,45618,-312793
154150000,-259,-4,-774,-7465,79984,14717
154169000,1015,25,-2,35633,55511,259312
154188000,1184,-1001,134,49511,6106,212534
154207000,827,-2471,338,21114,-36977,46519
154226000,746,-2245,540,3984,-33862,-118305
154245000,456,-1302,254,-27664,-43114,-86977
154264000,114,-866,-463,-37832,-14519,-30503
154283000,251,-608,-468,-35725,3694,17740
154302000,551,-618,-308,-21465,16381,31190
154321000,719,-919,-156,-15419,10687,7007
154340000,777,-1099,0,-15816,-778,-18061
154359000,725,-1277,52,-22259,-11160,-29221
154378000,657,-1300,31,-31068,-15206,-42534
154397000,602,-1144,-72,-37664,-13312,-63816
154416000,618,-1026,-121,-45053,-9725,-81404
154435000,653,-945,-136,-49007,-6229,-88244
154454002,742,-958,-139,-51786,-5435,-92061
154473000,786,-912,-161,-49877,-4458,-99251
154492000,877,-844,-171,-52641,-8931,-105175
154511000,967,-785,-213,-54595,-12030,-107908
154530000,1075,-773,-330,-60137,-19190,-110977
154549000,1151,-670,-377,-58030,-26977,-131282
154568000,1142,-588,-529,-53832,-31404,-174839
154587000,1181,-421,-591,-48534,-34259,-205587
154606000,1090,-257,-654,-39129,-38549,-208885
154625000,942,34,-711,-20061,-37679,-195480
154644000,794,414,-739,6763,-40167,-149297
154663000,702,712,-803,44900,-35389,-80595
154682000,604,614,-815,82458,-24519,-3557
154701000,448,770,-652,136137,-16977,111648
154720000,272,631,-446,185114,-9740,271404
154739000,215,89,30,232061,-29694,453389
154758000,351,-1137,290,256045,-47755,500259
154777000,242,-2805,799,202290,-48091,248870
154796000,-125,-3022,1919,146259,-22809,-29541
154815000,581,-4000,1659,10916,33160,-248488
154834000,320,-1551,599,-25068,58488,-258427
154853000,303,16,-190,-16839,63557,-182564
154872000,301,699,-677,-12290,43450,-27129
154891000,718,280,-356,55847,35114,91312
154910000,780,-566,-158,78946,21480,132488
154929000,858,-1336,181,58167,4274,105053
154948000,1007,-1830,608,21083,-9786,67190
154967000,767,-828,391,16396,-1358,-16366
154986000,603,-357,-477,25664,10946,-35984
155005000,492,-248,-475,49236,20870,16519
155024000,742,-922,163,45419,17450,119923
155043000,623,-1710,311,24290,13175,141007
155062000,687,-1746,627,-26213,-442,56213
155081000,836,-1176,547,-35007,-10396,-45251
155100000,625,-761,-101,-41557,-3954,-38748
155119000,541,-840,-174,-45374,8595,2839
155138000,725,-877,33,-38259,13358,20900
155157000,697,-880,95,-37465,16549,19770
155176000,762,-972,160,-44305,6748,-442
155195000,825,-1016,138,-52671,-4702,-20458
155214000,707,-979,2,-58442,-8305,-24549
155233000,619,-844,-16,-58213,-5267,-15068
155252000,587,-740,-68,-56900,-1038,-9404
155271000,628,-709,-76,-54091,-244,-17526
155290000,572,-705,-65,-52625,2961,-24885
155309000,542,-784,-9,-53954,3282,-33847
155328000,552,-760,-46,-52625,4595,-42076
155347000,573,-687,-104,-52732,4793,-46641
155366000,520,-611,-142,-52534,3297,-46076
155385000,419,-582,-193,-51603,7450,-40946
155404000,543,-495,-153,-45129,8244,-41969
155423000,522,-553,-195,-43419,5664,-60167
155442000,567,-590,-212,-40564,-503,-76625
155461000,592,-578,-225,-38641,-2213,-77541
155480000,615,-488,-306,-40412,-3954,-67465
155499000,677,-401,-312,-41480,-13267,-58549
155518000,695,-270,-411,-34809,-25954,-65603
155537000,528,73,-542,-19984,-23374,-75374
155556000,176,863,-776,23099,-7679,-43374
155575000,183,1390,-1020,77450,-396,87755
155594001,593,339,-447,102809,-10625,219083
155613000,1184,-876,110,116732,-51068,266000
155632000,419,-1987,308,100152,-52961,266809
155651000,476,-2382,778,29603,-17267,48839
155670000,501,-2030,504,-33893,-763,-111389
155689000,579,-1294,45,-49862,6656,-128900
155708000,346,-519,-208,-45114,6977,-73786
155727000,398,105,-355,-22702,5511,29969
155746000,784,-82,-452,16305,-4549,88748
155765000,794,-830,-227,28305,-11618,55343
155784000,597,-1159,-74,19419,-6030,24000
155803000,611,-848,138,10656,-7175,885
155822000,647,-830,-23,4961,-6442,-17618
155841000,622,-672,-177,7664,-7587,6900
155860000,649,-681,-162,3984,-15740,73725
155879000,472,-1138,-75,-11480,-18427,82687
155898000,514,-1217,52,-27312,-19969,37770
155917000,689,-1342,108,-49145,-21435,-24351
155936000,651,-1114,-10,-63938,-18290,-57648
155955000,552,-736,-178,-66229,-13312,-46137
155974000,587,-649,-303,-61496,-10045,-30564
155993000,625,-683,-322,-53129,-5954,-24412
156012000,705,-714,-309,-46946,-5801,-35450
156031000,701,-743,-283,-44122,-7435,-46366
156050000,667,-825,-296,-42732,-8045,-56854
156069000,714,-816,-309,-42274,-8854,-63893
156088000,731,-721,-391,-41969,-10366,-63328
156107000,773,-656,-539,-41480,-11465,-61526
156126000,797,-601,-658,-39450,-10259,-60885
156145000,780,-541,-678,-36290,-10290,-63083
156164000,758,-505,-673,-28351,-7954,-67328
156183000,756,-490,-652,-19541,-8137,-68229
156202000,767,-468,-642,-9312,-6473,-63099
156221000,712,-402,-641,3419,-4167,-53480
156240000,646,-318,-632,18793,3603,-47343
156259001,562,-115,-599,46992,10610,-57328
156278000,418,283,-693,88442,29450,-73038
156297000,468,478,-729,140916,50106,-57419
156316000,476,195,-329,180229,63801,55908
156335000,633,-266,335,212885,42717,231282
156354000,973,-1175,974,223251,-1007,296702
156373000,394,-1580,893,167007,244,237709
156392000,645,-2085,1289,66320,-33267,60000
156411000,697,-2637,439,-50763,-24198,-90259
156430000,425,-1081,-68,-68900,16763,-200900
156449000,357,976,-699,-12320,53114,-220473
156468000,686,708,-902,59694,45862,-58793
156487000,1138,-538,153,106351,17557,81679
156506000,714,-554,254,145938,5816,159725
156525000,213,-245,105,142427,15954,136366
156544000,426,-845,688,118656,-15923,123206
156563000,590,-1864,509,39465,-30183,85175
156582000,735,-1820,34,-30473,-9786,4396
156601000,645,-886,108,-53053,4015,-42687
156620000,623,-674,135,-61206,488,-15068
156639000,589,-929,117,-69541,1404,1221
156658000,587,-820,110,-71618,3282,-6244
156677000,563,-713,70,-68564,2992,-5175
156696000,580,-773,67,-70137,-3053,-519
156715000,626,-863,92,-75206,-4687,2396
156734001,655,-852,89,-79755,-5816,7206
156753000,671,-873,64,-84702,-4824,13954
156772000,641,-888,17,-89053,-3893,14992
156791000,588,-908,-9,-93893,-2137,15511
156810000,573,-969,7,-99190,-3114,11343
156829000,591,-977,-74,-102122,-3786,7251
156848002,558,-948,-118,-107541,-2870,12839
156867000,540,-929,-29,-115145,702,26549
156886000,518,-1023,-10,-122992,1770,23312
156905000,565,-1033,-31,-127206,4687,7114
156924000,546,-909,-167,-126519,8366,-23816
156943000,606,-702,-188,-122137,7053,-51129
156962000,558,-640,-262,-113587,3297,-82625
156981000,520,-589,-234,-99847,-3114,-129847
157000000,577,-315,-349,-76610,-4564,-173389
157019000,481,252,-641,-50946,-3007,-130381
157038000,389,936,-788,-15801,-2610,37603
157057000,523,1004,-1084,30335,-6992,198229
157076000,754,231,-868,61343,-19847,276717
157095000,661,-598,-680,89083,-22595,223801
157114000,343,-1564,-659,74473,-8732,84732
157133000,530,-2265,-333,39557,17145,-72000
157152000,743,-1961,-88,5190,43725,-159633
157171000,690,-651,-321,-2045,42641,-120992
157190000,731,-94,-778,183,21267,-14564
157209000,808,-516,-969,2106,7374,73633
157228000,833,-919,-579,13908,-8274,64702
157247000,598,-872,-465,15496,3190,29603
157266000,560,-1026,-283,2916,6152,2870
157285000,600,-1167,-186,-9221,13893,-9969
157304000,611,-965,-250,-17328,17847,-9160
157323000,619,-754,-364,-21236,16381,534
157342000,570,-670,-403,-22381,15053,14580
157361000,600,-606,-428,-17145,13389,15328
157380000,566,-299,-511,1343,15786,-12641
157399000,604,32,-739,38198,18320,-62778
157418000,578,142,-717,62961,20748,-31786
157437000,617,8,-537,87648,12992,58839
157456000,659,-662,-301,103160,-8458,186290
157475000,536,-2148,146,73114,-24595,182137
157494000,405,-2449,360,8595,-6015,-22183
157513000,526,-2004,83,-27679,10534,-168854
157532000,463,-916,-154,-34885,11374,-135984
157551000,358,-403,-404,-45068,7740,-35190
157570000,556,-775,-385,-47694,5847,31435
157589000,585,-991,-349,-42595,11526,9709
157608000,508,-908,-355,-44641,20412,-26152
157627000,472,-987,-268,-58519,21908,-35022
157646000,582,-1085,-177,-65801,19389,-41206
157665000,612,-989,-290,-74137,17083,-43419
157684000,575,-947,-355,-85938,13236,-33511
157703000,535,-896,-352,-91694,13755,-32229
157722000,467,-902,-398,-97053,18229,-38000
157741000,466,-954,-372,-104106,22000,-46732
157760000,490,-845,-412,-105648,28809,-62549
157779000,516,-788,-447,-111068,29419,-67709
157798000,466,-714,-471,-111465,32885,-74946
157817000,477,-649,-520,-109984,38732,-93435
157836000,512,-549,-421,-113038,39526,-82564
157855000,569,-530,-488,-108198,39419,-79618
157874001,528,-347,-482,-105343,43679,-84229
157893000,541,-243,-486,-95282,41603,-69938
157912000,450,-90,-528,-84900,46427,-46396
157931000,407,203,-532,-61465,53664,-3038
157950000,382,279,-544,-34396,62977,57083
157969000,329,314,-481,-3801,75022,126183
157988000,291,429,-472,34351,85099,207984
158007000,257,572,-406,86961,91343,310000
158026000,366,417,-222,140442,79801,440335
158045000,647,-382,83,188396,43038,500259
158064000,677,-1942,275,182503,6824,423206
158083000,9,-2775,532,165618,20458,192854
158102000,-18,-2783,1341,70900,69709,-58198
158121000,463,-2746,758,-25557,90458,-211816
158140000,539,-697,52,-21893,97801,-193297
158159000,240,100,-717,-11877,87404,-120351
158178000,518,12,-463,14290,64274,87541
158197000,1034,-672,231,38549,25694,211465
158216000,408,-1265,109,46641,13206,221251
158235000,254,-1913,288,-12442,11038,121587
158254000,659,-1502,627,-4458,19526,-30259
158273000,531,-1022,93,-23618,33877,-100167
158292000,427,-882,-178,-24152,44000,-64977
158311000,535,-920,103,-25297,44687,15862
158330000,465,-1046,65,-20000,47404,48274
158349001,503,-849,118,-21145,44656,28687
158368000,679,-916,187,-25267,31633,1862
158387000,726,-1067,118,-36213,19206,-18305
158406000,578,-944,51,-40992,14152,-12183
158425000,534,-854,8,-42442,14045,-152
158444000,531,-956,24,-44549,14488,-5114
158463000,514,-997,58,-45389,16748,-21877
158482000,492,-999,44,-47526,20198,-40946
158501000,506,-1039,14,-51129,21694,-60015
158520000,551,-1024,15,-55099,21603,-75984
158539000,560,-950,-27,-58977,20625,-81541
158558000,576,-931,-85,-64412,18290,-84824
158577000,590,-878,-149,-67450,17282,-90778
158596000,614,-807,-198,-68732,13694,-96320
158615000,612,-685,-212,-63587,12595,-99389
158634000,605,-599,-324,-54015,9496,-114137
158653000,609,-432,-335,-41496,9358,-113312
158672000,623,-494,-432,-30885,8045,-126625
158691000,702,-509,-393,-21679,12137,-146427
158710000,724,-374,-380,-5618,17022,-152687
158729000,460,93,-486,18946,29450,-133297
158748000,129,797,-773,63038,51221,-38000
158767000,374,384,-521,91206,60381,135114
158786000,704,-13,72,135251,44656,315771
158805000,1152,-1057,341,148671,-7282,410473
158824000,520,-1726,454,113114,-3709,332580
158843000,391,-2357,890,35862,-10900,60290
158862000,809,-2729,510,-33358,1832,-161938
158881000,629,-1149,42,-50183,26458,-202442
158900000,359,75,-494,-27923,32259,-160961
158919000,307,434,-688,-5236,37877,25160
158938000,1012,-398,-267,32916,13282,118015
158957000,1054,-662,44,68503,-24000,197633
158976000,-127,-1333,-83,41694,-824,161908
158995000,197,-1473,365,-4305,-2580,51679
159014000,760,-1732,731,-27603,778,-46854
159033000,567,-1096,207,-57908,5526,-106717
159052000,436,-434,-451,-39648,23572,-99297
159071000,418,-564,-370,-39038,25954,-12244
159090000,603,-684,-154,-21770,24946,35450
159109000,619,-668,-112,-11038,23618,48549
159128000,561,-758,31,-10213,14076,37679
159147000,613,-958,97,-14473,8488,25496
159166000,613,-1111,23,-25725,6610,21007
159185000,544,-1018,-62,-29236,10564,14595
159204000,478,-864,-142,-30061,17801,9236
159223000,444,-905,-185,-29618,24534,-2961
159242000,514,-977,-158,-27709,29832,-29618
159261000,537,-913,-137,-26290,32717,-42427
159280000,547,-900,-135,-26961,30900,-41526
159299000,532,-913,-124,-27618,28274,-37251
159318000,465,-833,-106,-27694,28534,-25297
159337000,568,-952,-82,-30351,24259,-23694
159356000,605,-921,-35,-30977,21389,-33969
159375000,538,-873,-57,-32534,21312,-31908
159394000,597,-869,-32,-35740,22595,-34870
159413000,630,-795,-75,-35847,23267,-46549
159432000,674,-734,-94,-35450,20152,-61465
159451000,793,-648,-69,-31969,14900,-85541
159470000,723,-552,-172,-22183,12290,-113938
159489001,737,-464,-138,-11267,16167,-139389
159508000,765,-249,-118,5969,16351,-150580
159527000,695,-110,-141,21648,19541,-133786
159546000,611,50,-183,44671,22213,-74351
159565000,480,334,-187,74000,25450,31603
159584000,627,247,-104,101541,18320,173526
159603000,832,-126,160,129679,-4412,319496
159622000,895,-885,303,128091,-38488,423251
159641000,65,-1396,152,107725,-31877,304625
159660000,109,-2161,604,51007,-11893,55587
159679000,838,-2580,761,14916,6381,-196870
159698000,531,-1248,360,-16625,10885,-246061
159717000,433,-455,-72,-16473,12213,-140351
159736000,478,-379,-201,-20793,8977,8320
159755000,909,-454,-105,11725,-13007,90778
159774000,819,-691,-35,30748,-30900,108870
159793000,493,-881,24,25969,-28091,66335
159812000,679,-1164,317,8427,-30106,-13557
159831000,834,-1189,391,-2717,-26717,-84931
159850000,659,-632,31,854,-23099,-87190
159869000,585,-537,-164,3954,-19190,-24244
159888000,724,-646,33,11557,-25923,59404
159907001,637,-902,40,17664,-31877,91587
159926000,530,-902,79,11511,-31526,62030
159945000,761,-1152,333,-5954,-42793,14183
159964000,791,-1361,322,-25526,-49969,-33877
159983000,665,-1056,115,-32259,-49374,-34946
160002000,584,-889,-18,-40809,-46977,-8259
160021000,657,-916,1,-42045,-48229,9160
160040000,590,-928,-77,-37145,-44885,3496
160059000,493,-798,-112,-34290,-38442,-4900
160078000,534,-812,-37,-34503,-37816,-4290
160097000,596,-958,6,-35297,-38549,-10427
160116000,554,-935,-52,-35679,-36061,-16061
160135000,517,-863,-120,-35954,-32412,-14931
160154000,524,-801,-168,-35984,-28946,-15816
160173000,501,-825,-191,-35541,-24106,-23954
160192000,562,-819,-167,-33755,-22229,-40152
160211000,543,-747,-156,-34137,-22259,-39053
160230000,496,-733,-192,-33236,-20610,-35267
160249000,469,-677,-178,-29709,-18305,-38809
160268000,479,-635,-225,-24458,-14167,-45053
160287000,477,-543,-212,-13022,-11328,-52198
160306000,449,-354,-311,6564,-5725,-45435
160325000,423,-173,-334,29129,274,-19221
160344000,412,-65,-382,57801,7511,29114
160363000,430,20,-322,86152,7923,124122
160382000,515,-281,-175,109160,-2320,250870
160401000,677,-1218,92,112274,-26519,271221
160420000,177,-1718,107,97282,-12412,186366
160439000,59,-1907,395,53374,-4656,25603
160458000,662,-1895,459,12000,7755,-129572
160477000,507,-1124,67,-18351,12671,-158809
160496000,357,-563,-354,-4839,15114,-96992
160515000,322,-428,-277,-244,21923,14244
160534000,680,-713,-159,23404,12412,78091
160553000,527,-989,-40,38290,2977,90931
160572000,266,-1104,22,22961,8503,54580
160591000,502,-1264,449,-3633,-2000,-4351
160610000,679,-1494,384,-21511,-10717,-45160
160629000,517,-952,-3,-27832,-8396,-32503
160648000,439,-749,-124,-33511,-3053,12412
160667000,525,-884,-98,-26824,-1160,35022
160686000,425,-874,-113,-17389,7832,27511
160705000,458,-772,-37,-12778,6396,8839
160724000,622,-1016,111,-16229,-3450,-2015
160743000,605,-1111,134,-21480,-13022,-9083
160762000,539,-1009,52,-26534,-16549,-2442
160781000,500,-920,-4,-28534,-16045,2396
160800000,428,-900,-57,-26442,-10519,-2244
160819000,441,-847,-51,-24000,-4748,-12366
160838000,526,-932,0,-23404,-5053,-22992
160857000,498,-932,19,-21282,-4946,-28916
160876000,460,-902,15,-21312,-6045,-20015
160895000,477,-911,23,-22091,-7282,-12106
160914000,491,-933,-22,-24290,-9465,-17755
160933000,540,-964,-28,-25801,-14213,-31206
160952000,493,-901,-50,-23923,-15725,-42335
160971000,448,-764,-86,-17923,-16885,-33038
160990000,475,-742,-186,-13389,-16549,-18824
161009000,455,-700,-287,-8167,-16763,-16351
161028000,516,-749,-264,-1175,-15755,-32488
161047000,481,-696,-217,11786,-16091,-49236
161066000,454,-704,-226,20854,-12381,-61496
161085000,442,-635,-206,31572,-5038,-71572
161104000,368,-492,-223,43526,2870,-48549
161123000,300,-269,-205,56717,8381,34564
161142000,467,-257,-74,76000,6595,149679
161161000,674,-128,-77,110061,-3770,243404
161180000,657,-394,71,137297,-27083,306610
161199000,-464,-1111,-134,135526,2473,232839
161218000,-289,-2244,438,80106,18656,9816
161237000,901,-3434,1394,32870,7679,-222061
161256000,526,-1561,724,-32106,6122,-273832
161275000,183,72,-177,-34778,1877,-177618
161294002,280,572,-585,8595,11190,2534
161313000,672,-436,-407,61251,3282,124030
161332000,855,-942,341,85190,-24503,211145
161351000,191,-1566,306,69664,-26793,247022
161370000,150,-2031,288,-2183,-7679,126900
161389000,544,-1614,802,-42366,-13358,-13954
161408000,374,-1313,219,-67404,-7679,-107389
161427000,282,-530,-211,-59480,5633,-89404
161446000,307,-851,-134,-62519,16259,-8961
161465000,481,-1167,31,-58229,16870,12977
161484000,308,-995,15,-60900,19053,-30
161503000,273,-779,62,-62381,15923,-10885
161522000,409,-947,106,-67755,8809,-7328
161541000,433,-1038,68,-70488,6274,-5267
161560000,413,-916,5,-69374,7954,-1267
161579000,407,-755,-55,-65343,12335,12458
161598000,432,-850,-71,-61022,16641,16152
161617000,504,-909,-77,-56977,19007,-8534
161636000,540,-898,-72,-51664,19618,-34137
161655000,524,-870,-86,-48885,20045,-41786
161674000,544,-787,-95,-45404,19404,-36534
161693000,515,-780,-145,-41938,20778,-28015
161712000,481,-736,-141,-37022,23465,-21923
161731000,557,-932,-101,-34900,22152,-35312
161750000,624,-1018,-108,-32366,21587,-65480
161769001,547,-850,-141,-30549,22259,-85847
161788000,533,-776,-186,-31267,23038,-83908
161807000,558,-805,-210,-32274,21770,-89740
161826000,550,-762,-208,-32748,20015,-99969
161845000,587,-702,-216,-28900,14076,-107251
161864000,628,-631,-246,-24290,9038,-107801
161883000,557,-529,-320,-16122,7083,-103496
161902000,526,-350,-387,-3984,9328,-98427
161921000,432,65,-561,25862,18656,-101816
161940000,424,584,-801,73099,30854,-73099
161959000,479,598,-574,115175,30122,74290
161978000,664,88,-96,149038,11541,256167
161997000,768,-628,258,168229,-31114,438931
162016000,-301,-1589,218,138045,-13328,413984
162035000,-336,-2439,485,79404,-5618,155297
162054000,941,-3268,1092,2916,3572,-161053
162073000,630,-1654,453,-43251,8534,-330305
162092000,339,196,-463,-19038,13526,-263862
162111000,125,220,-844,-11053,18351,-43679
162130000,719,-509,-332,22931,10961,100977
162149000,667,-846,-247,53923,3129,134396
162168000,531,-1348,49,29190,-10030,97969
162187000,608,-1527,472,-6595,-23038,13633
162206000,576,-1718,433,-40839,-26839,-24335
162225000,433,-1105,101,-52671,-17358,-21282
162244000,380,-665,-186,-52076,-3770,-12793
162263000,462,-760,-225,-47053,6183,-1480
162282000,497,-922,-117,-40732,13175,-9541
162301000,476,-935,-9,-38015,15679,-21694
162320000,469,-912,85,-37938,12396,-27862
162339000,508,-944,99,-44488,5099,-21312
162358000,563,-945,5,-50564,-3145,-16229
162377000,491,-875,-98,-54473,-4427,-11343
162396000,477,-785,-118,-54061,-3328,-8809
162415000,506,-768,-122,-52778,-1496,-6473
162434002,544,-873,-94,-53725,-1251,-7603
162453000,585,-841,-92,-52198,-1038,-14503
162472000,575,-810,-137,-52534,-1236,-14931
162491000,603,-787,-130,-51541,-3221,-13267
162510000,627,-813,-150,-50106,-4519,-14763
162529000,646,-865,-121,-49801,-8610,-25374
162548000,668,-860,-130,-48885,-11603,-41160
162567000,669,-796,-171,-47068,-12671,-57908
162586000,683,-739,-239,-41725,-11328,-76381
162605000,653,-724,-283,-34458,-8671,-106732
162624000,614,-670,-328,-26290,-1587,-139862
162643000,646,-486,-348,-15480,4412,-141465
162662000,498,-66,-411,3679,7358,-123664
162681000,159,741,-818,46610,27175,-53465
162700000,351,767,-728,86213,25419,131297
162719000,697,212,-174,126595,1633,308244
162738000,937,-673,50,153145,-49572,441099
162757000,-97,-2329,59,97664,-54503,363480
162776000,-31,-2985,556,47221,-30961,77190
162795000,479,-2446,1013,-40732,412,-190824
162814000,350,-1076,174,-58351,37969,-202229
162833000,243,37,-709,-31786,41251,-167480
162852000,169,133,-877,-18320,38580,-8488
162871000,670,-277,-522,25847,33251,85526
162890000,981,-662,-210,54229,4656,106167
162909000,371,-1119,-122,43129,4076,107022
162928000,253,-1352,235,-2305,-3236,42244
162947000,487,-1462,398,-14442,7572,-41267
162966000,547,-686,-124,-11740,15190,-82213
162985000,495,-352,-535,4687,22519,-41190
163004000,407,-514,-348,22793,24549,48458
163023000,593,-869,-24,39938,13893,121618
163042000,233,-1232,94,45175,25236,125480
163061000,267,-1664,397,5511,23068,35954
163080000,659,-1920,677,-24977,14442,-39587
163099000,703,-1450,337,-63374,5923,-61251
163118000,535,-737,-192,-59847,6152,-52305
163137000,412,-567,-509,-55053,10045,-15786
163156000,558,-788,-408,-45465,15435,-2977
163175000,649,-928,-208,-33908,14793,-24030
163194000,502,-745,-143,-30396,22274,-30748
163213000,463,-749,-24,-35435,15114,-22351
163232000,501,-1037,64,-40290,9709,-25374
163251000,535,-1052,26,-42854,8229,-44366
163270000,458,-829,-112,-40152,8839,-44213
163289000,451,-734,-113,-39572,8488,-23480
163308000,436,-782,-105,-38610,10671,-9297
163327000,503,-846,-48,-37557,10000,-12473
163346000,527,-869,-34,-37053,8809,-23923
163365000,570,-870,-18,-35328,6290,-36366
163384000,562,-718,-79,-32793,5969,-40931
163403000,566,-577,-203,-24427,10702,-42396
163422000,595,-483,-230,-14503,14656,-42198
163441000,580,-225,-315,8793,22351,-40442
163460000,551,-17,-385,40839,31114,-27862
163479000,504,38,-345,75114,38793,16778
163498000,579,3,-270,113404,44091,94977
163517000,873,-406,61,138427,24396,175801
163536000,525,-1119,230,126839,25328,203541
163555000,311,-1674,660,86977,6458,116702
163574002,839,-2671,1095,18305,5587,-26427
163593000,817,-2117,647,-56595,-4381,-122671
163612000,564,-950,239,-65251,-3664,-110458
163631000,401,-335,-142,-58412,-8412,-47664
163650000,527,-414,-364,-40625,-9145,10213
163669000,741,-653,-348,-15694,-10793,11832
163688000,657,-649,-248,2564,-10503,-1206
163707000,538,-603,-130,6977,-12213,19221
163726000,459,-941,39,870,-17083,26259
163745000,505,-1088,50,3145,-15496,-13099
163764000,542,-664,-172,14122,-7908,-27984
163783000,600,-632,-165,13618,-6320,61312
163802000,560,-957,76,5969,-17862,167984
163821000,410,-1415,130,-7145,-25603,187984
163840000,133,-1337,102,-21511,-7297,82702
163859000,379,-1462,234,-45358,-7541,-14641
163878000,596,-1354,193,-63175,-15480,-74015
163897000,513,-774,-38,-56183,-18977,-58198
163916000,441,-622,-158,-53099,-22167,-3465
163935000,548,-840,-149,-46931,-22702,17312
163954000,575,-1043,-125,-40610,-20305,-12213
163973000,438,-971,-120,-36824,-8824,-46045
163992000,437,-859,-73,-37862,-4839,-63221
164011000,516,-927,-31,-41816,-5007,-70564
164030000,575,-1060,-49,-44641,-7480,-94137
164049000,548,-1096,-78,-44931,-9557,-126000
164068000,501,-846,-96,-43389,-3038,-139832
164087000,568,-714,-119,-43206,-4793,-131251
164106000,654,-749,-120,-44839,-8137,-124641
164125000,665,-822,-167,-39694,-9236,-139114
164144000,598,-636,-216,-34259,396,-155725
164163000,611,-476,-239,-27022,809,-157022
164182000,633,-357,-222,-15847,4778,-141480
164201000,582,-247,-315,-9603,5221,-119129
164220000,474,-86,-369,7908,15587,-85435
164239000,316,157,-488,31068,30732,-49343
164258000,246,408,-479,60519,51068,40000
164277000,374,300,-341,83541,52992,199771
164296000,638,48,-34,116564,40351,391419
164315000,949,-569,127,133190,-14732,500259
164334000,127,-1843,110,106473,-36030,477755
164353000,-132,-2242,158,69908,-17145,114519
164372000,837,-2781,895,10076,-4396,-204717
164391000,533,-1864,302,-51938,30610,-256839
164410000,455,58,-364,-7404,18351,-203038
164429000,174,886,-945,21511,23160,-7236
164448000,488,-406,-641,61206,17343,190809
164467000,1005,-1135,-243,97877,-6122,180137
164486000,129,-1717,-271,98076,14366,67572
164505000,358,-1826,119,33954,8702,-98748
164524000,740,-1716,603,-213,1496,-141312
164543000,689,-890,81,-12076,-21129,-81206
164562000,467,-524,-465,-8595,-14641,-3236
164581000,355,-676,-382,-4229,-15938,87206
164600000,272,-990,-321,3557,-1465,90152
164619000,267,-857,-148,7190,14015,27786
164638000,387,-1002,212,-4931,10137,-13770
164657000,613,-1270,289,-21847,-2503,-34595
164676000,570,-996,94,-29862,-8259,-28198
164695000,463,-734,-80,-26931,-11053,-14000
164714001,464,-751,-197,-20854,-9343,-1618
164733000,533,-885,-187,-16442,-4671,-6030
164752000,567,-875,-122,-12167,-412,-19847
164771000,519,-846,-63,-11312,2793,-26320
164790000,558,-925,0,-13160,839,-27175
164809000,592,-1017,-5,-18122,-2106,-34000
164828000,574,-992,-6,-23496,-1557,-36595
164847000,648,-895,-10,-26167,-7908,-43114
164866000,704,-887,-55,-28106,-12702,-43038
164885000,537,-943,-71,-32534,-11633,-42580
164904000,530,-940,-22,-30656,-10305,-54030
164923000,764,-882,10,-34687,-19404,-77755
164942000,784,-762,8,-33221,-27694,-75374
164961000,670,-725,-106,-35083,-30916,-70305
164980000,555,-751,-208,-36549,-30091,-82320
164999000,591,-686,-238,-32229,-17679,-107526
165018000,605,-452,-266,-23755,-12748,-113312
165037000,628,-378,-306,-14488,-11893,-99908
165056000,541,-241,-405,2717,-6824,-86992
165075000,376,-68,-508,25251,6641,-64442
165094000,180,425,-559,62931,28793,4045
165113000,340,539,-528,95114,31969,175450
165132000,610,-15,-55,113694,7053,399511
165151000,791,-751,265,142687,-33618,500259
165170000,-115,-2102,197,103847,-44503,464702
165189000,-644,-2565,217,66885,-20091,157664
165208000,605,-3026,1141,-6183,16351,-204748
165227000,685,-1785,582,-77786,27755,-313511
165246000,429,40,-300,-41450,19297,-268473
165265000,110,583,-791,-19938,18320,-70351
165284000,603,-470,-619,10015,12809,120778
165303000,1042,-734,-63,50763,-11633,159282
165322000,53,-1148,-162,50167,-5358,155374
165341000,90,-1383,142,11145,-9465,43267
165360000,594,-1798,757,-24687,-12778,-59908
165379000,609,-1314,304,-47847,-13221,-107068
165398000,426,-506,-225,-32946,-9038,-76625
165417000,325,-443,-378,-30824,-427,12152
165436001,535,-910,-207,-18687,-1251,53908
165455000,361,-1095,-174,-11236,9969,33328
165474000,332,-780,-26,-18167,13251,-656
165493000,487,-975,222,-26793,-564,7648
165512000,560,-1384,148,-41083,-11541,6061
165531000,481,-1170,19,-50961,-13557,2320
165550000,398,-975,-105,-56763,-11816,3251
165569000,393,-1038,-159,-59480,-5526,-1160
165588000,440,-1074,-131,-62458,946,-25206
165607000,449,-1056,-99,-64305,4763,-51618
165626000,429,-955,-99,-64931,5465,-66946
165645000,404,-903,-141,-66763,4366,-64854
165664000,411,-858,-204,-66335,3114,-58580
165683000,441,-833,-254,-64656,2244,-56687
165702000,354,-804,-370,-62137,6870,-67297
165721000,450,-778,-372,-57175,7175,-90793
165740000,504,-613,-360,-51083,9022,-95282
165759000,494,-544,-372,-43969,6931,-76595
165778000,438,-591,-389,-37587,9541,-56030
165797001,432,-628,-368,-29786,13236,-58763
165816000,488,-565,-354,-19572,19297,-58427
165835000,535,-468,-329,-7984,26412,-62442
165854001,538,-355,-330,7022,33114,-64473
165873000,452,-107,-463,28198,46183,-60274
165892000,235,442,-608,66916,64702,-17175
165911000,320,415,-548,95022,74946,125404
165930000,653,-338,11,115068,61114,292335
165949000,1226,-1299,331,125541,17480,382732
165968000,246,-1694,270,103221,7435,339190
165987000,-289,-2251,417,44076,33511,67404
166006000,512,-2828,659,-29923,42931,-200580
166025000,674,-1393,250,-50229,49984,-253465
166044000,320,72,-462,-20732,49175,-204229
166063000,232,222,-799,-11664,44442,-10244
166082000,891,-584,-227,15557,27343,120366
166101000,1156,-882,126,46977,-656,143694
166120000,166,-1332,-48,36595,9557,127908
166139000,13,-1357,208,-946,18916,17099
166158000,648,-1542,638,-20167,15633,-94534
166177000,662,-1085,222,-35358,9725,-128396
166196000,535,-513,-266,-18061,6885,-54290
166215000,502,-502,-131,-17129,5648,66122
166234000,716,-803,-5,-3404,-7099,123465
166253000,337,-844,-142,6992,15114,99541
166272000,363,-1169,145,-13114,12412,8473
166291000,697,-1579,401,-28274,3755,-61938
166310000,630,-1106,207,-45206,-732,-69572
166329000,466,-713,-78,-42732,-4274,-37557
166348000,466,-696,-207,-36916,-1877,-3190
166367000,499,-888,-151,-30122,-595,2412
166386000,454,-947,-100,-24183,6061,-14595
166405000,460,-812,-15,-22916,7114,-19526
166424000,554,-920,27,-27251,1022,-18061
166443000,568,-989,16,-30396,-5923,-20916
166462000,479,-928,-52,-29969,-6259,-23190
166481000,518,-844,-72,-30320,-7160,-23022
166500000,517,-795,-38,-30717,-7816,-18534
166519000,505,-841,-53,-30885,-7725,-25541
166538000,555,-909,-12,-31480,-8320,-46458
166557000,585,-918,23,-33038,-6290,-62015
166576000,549,-839,30,-32763,-7145,-69083
166595000,551,-771,35,-34610,-9038,-79587
166614000,546,-713,-107,-32702,-488,-89755
166633000,596,-608,-192,-27480,2595,-109557
166652000,545,-299,-330,-10458,12442,-114091
166671000,326,326,-687,27053,30274,-100412
166690000,335,687,-934,70717,49603,6687
166709000,544,404,-463,105251,42519,200687
166728000,830,-57,-74,152854,11679,415038
166747000,920,-1351,177,160122,-50290,445389
166766000,-104,-1989,479,121893,-43908,333587
166785000,286,-2775,1389,25267,-32137,52427
166804000,657,-3468,1330,-93221,-15847,-160977
166823000,245,-989,185,-87129,9297,-197282
166842000,-12,303,-435,-67083,11725,-132916
166861000,161,235,-736,-25206,22122,3465
166880000,784,-257,-574,27267,15282,35404
166899000,1010,-689,-138,58702,-11328,46885
166918000,300,-1065,108,39603,-11404,88244
166937000,219,-1233,454,2946,-14885,60503
166956000,502,-1844,707,-34412,-13938,-22580
166975000,586,-1748,410,-67664,-9419,-106015
166994000,404,-1141,175,-78931,-2671,-98870
167013000,270,-706,150,-81221,4366,-50061
167032000,409,-677,-35,-70137,13969,-23816
167051000,491,-632,-115,-53618,23984,-36183
167070000,492,-616,-62,-36870,26916,-68519
167089000,467,-726,-39,-19786,43312,-118610
167108001,810,-748,106,-7541,49419,-185480
167127000,915,-777,113,-6641,48793,-244549
167146000,802,-546,31,-3358,45633,-254000
167165000,667,-427,-93,137,42656,-236717
167184000,818,-380,-83,9541,45160,-207541
167203000,1049,-370,10,6198,39175,-186549
167222000,1155,-366,-21,13267,26992,-151251
167241000,1003,-423,-171,16702,17312,-119404
167260000,987,-394,-224,21511,25648,-99694
167279000,1152,-221,-175,22503,23893,-85954
167298000,1170,-231,-197,22458,14076,-66458
167317000,1100,-304,-233,22946,2396,-61938
167336000,1048,-346,-330,29053,4503,-78061
167355000,1005,-114,-356,31114,4793,-86458
167374000,950,85,-354,40396,-1725,-68931
167393000,840,83,-453,50702,-3419,-62167
167412000,784,246,-594,68931,4534,-69664
167431000,641,469,-637,89816,18519,-53679
167450000,590,507,-643,116396,39312,-34977
167469000,657,460,-532,139633,64732,-9312
167488000,900,125,-119,154564,80473,52213
167507000,1148,-89,196,162519,82916,154290
167526000,1746,-563,632,160183,41511,231129
167545000,1068,-1205,612,127587,20702,190290
167564000,119,-556,989,120824,24274,58458
167583000,1031,-1406,1436,78198,20839,-63206
167602000,1550,-1284,1011,13496,-3450,-124916
167621000,1105,-313,378,534,-4961,-89755
167640000,1022,5,4,-549,-8534,152
167659000,1176,-39,58,-4274,-18442,135038
167678000,1114,-252,45,854,-24061,151664
167697000,486,-172,-11,19083,3465,80793
167716000,728,-514,293,29862,7221,-2442
167735000,1203,-852,651,1465,-11954,-65709
167754000,1207,-469,478,-17908,-17740,-70305
167773000,1290,-138,214,-22534,-34229,-5496
167792000,1232,-289,173,-26274,-45862,62061
167811000,1053,-432,73,-23221,-47328,75114
167830000,791,-354,-8,-20946,-30778,50702
167849000,905,-327,102,-19389,-21450,15312
167868000,1109,-593,278,-27770,-28625,-20274
167887000,1152,-542,312,-37801,-32458,-38549
167906000,1129,-384,222,-41664,-40091,-31068
167925000,1111,-337,189,-43419,-48473,-17053
167944000,1066,-340,160,-43083,-52229,-5801
167963000,1017,-374,153,-43465,-55755,-3374
167982000,982,-411,275,-45801,-52854,-6045
168001000,955,-350,178,-47541,-51709,-8229
168020000,911,-328,181,-50366,-52687,-6396
168039000,903,-343,139,-50305,-50427,-9343
168058000,865,-354,142,-51267,-50381,-18412
168077000,814,-308,77,-49786,-50000,-29938
168096000,756,-259,8,-46885,-47984,-36977
168115000,638,-198,-138,-41374,-41786,-45175
168134000,572,-66,-258,-30106,-31480,-56702
168153000,478,210,-409,-12045,-18885,-51877
168172000,179,638,-752,20519,10519,-36305
168191000,329,887,-926,63984,47358,-12106
168210000,622,457,-726,98793,70534,36137
168229000,844,-24,-193,112610,85236,106595
168248001,1260,-177,222,138076,69160,207007
168267000,1094,-1030,458,123557,36656,236824
168286000,975,-1213,983,83267,13969,126503
168305000,1268,-2277,1373,-1099,2931,-30259
168324000,1451,-2147,1179,-75068,-24122,-131587
168343000,690,-386,62,-82000,3007,-124396
168362000,431,846,-500,-41022,2809,-33770
168381000,598,759,-803,-11694,-1618,119893
168400000,827,138,-444,14580,1893,200061
168419000,820,-150,-186,50931,6259,227374
168438000,547,-274,51,74580,17297,249725
168457000,586,-457,253,84900,10320,244534
168476000,764,-1192,604,77648,-4488,161160
168495000,858,-1495,786,58961,-5389,66167
168514000,801,-1408,546,38137,1267,-1419
168533000,716,-1103,425,14916,6305,-19587
168552000,634,-1012,380,-5022,7679,-27450
168571000,714,-936,319,-12427,8824,-62244
168590000,660,-610,116,-2946,5007,-105557
168609000,640,-45,-142,20702,19541,-62351
168628000,966,-279,-92,29465,4366,68702
168647000,1147,-945,373,15053,-29480,146442
168666000,605,-1167,273,5374,-22167,126717
168685000,509,-1304,384,-19679,-22625,20625
168704000,947,-1621,513,-50167,-26381,-72000
168723000,997,-1235,470,-76274,-32137,-101893
168742000,788,-813,205,-80137,-36946,-76977
168761000,741,-657,49,-83083,-39740,-22045
168780000,770,-737,22,-79038,-39862,-5312
168799000,637,-704,-41,-67679,-26625,-12351
168818000,659,-581,-19,-57496,-20854,-27572
168837000,685,-649,10,-50900,-19404,-40167
168856000,713,-663,28,-43068,-16259,-49404
168875000,673,-560,-61,-37603,-12229,-47938
168894000,705,-490,-150,-34198,-11938,-41374
168913000,755,-553,-142,-34564,-13862,-37954
168932000,763,-585,-139,-29648,-12916,-41404
168951000,686,-504,-159,-26396,-8381,-36442
168970000,639,-495,-192,-22061,-4198,-26946
168989000,716,-498,-177,-15969,-4564,-36839
169008000,739,-344,-214,-351,1893,-54290
169027000,546,15,-362,24839,14809,-53954
169046000,395,410,-540,59480,34717,-13755
169065000,483,367,-523,96824,53450,40839
169084000,688,41,-95,123358,58122,138061
169103000,795,-475,273,151969,42259,238778
169122000,568,-1290,480,137435,20717,303908
169141000,647,-1704,1111,100488,6610,201267
169160000,1012,-3115,1616,-2641,-8778,8152
169179000,967,-2698,949,-87816,-25053,-138732
169198000,454,-669,197,-82305,-1389,-188763
169217000,296,574,-384,-45267,19694,-141541
169236000,477,367,-895,-11923,17053,19694
169255000,1045,-336,-80,24274,19175,110641
169274000,1273,-589,44,56366,-5297,144610
169293000,309,-1014,112,45145,10381,123312
169312000,325,-1206,493,18809,11160,15114
169331000,888,-1752,1039,-31022,1709,-69603
169350000,859,-1508,618,-80137,-10793,-99114
169369000,689,-580,110,-59770,-1862,-102152
169388002,513,-147,-343,-50977,-2916,-26061
169407000,729,-531,-224,-39145,-1679,38610
169426000,915,-832,-60,-26778,-2213,35893
169445000,680,-773,-80,-18992,13541,8106
169464000,538,-411,7,-14335,19954,-7465
169483000,609,-629,130,-9694,17145,-137
169502000,750,-924,217,-14000,11297,-15145
169521000,767,-976,199,-20351,8183,-42778
169540000,704,-731,171,-21770,8366,-48412
169559000,658,-625,151,-22763,7862,-31801
169578000,617,-716,163,-24320,13709,-25374
169597000,681,-818,253,-24564,19786,-42778
169616000,681,-789,345,-23908,30244,-77053
169635000,698,-670,423,-24183,34854,-99267
169654000,605,-505,379,-25572,39282,-90778
169673000,586,-447,340,-24977,45328,-73603
169692000,638,-451,342,-22885,50793,-72793
169711000,596,-487,238,-21664,56992,-85053
169730000,622,-434,199,-20824,69343,-90442
169749000,700,-357,156,-15435,72748,-100503
169768000,712,-194,65,-8671,67969,-110656
169787000,415,251,-230,14900,77099,-110198
169806000,454,998,-598,67786,100122,-89603
169825000,878,557,-420,104870,102564,9862
169844000,1246,-235,280,114122,81206,157175
169863000,1168,-805,479,111725,43541,312488
