# IKS01A3 
 
time[us],acc_x[mg],acc_y[mg],acc_z[mg],gyro_x[mdps],gyro_y[mdps],gyro_z[mdps]
452898000,346,720,-269,53679,-6198,63129
452917000,319,587,-305,46045,-9603,86503
452936000,345,458,-316,34442,-10717,106305
452955000,363,333,-372,18229,-15557,114152
452974000,320,229,-357,-2870,-15847,117648
452993000,299,108,-415,-25587,-7709,128427
453012000,309,24,-471,-54320,1648,125450
453031000,252,-97,-532,-83969,12290,126488
453050000,308,-281,-648,-123572,36213,113358
453069000,333,-369,-592,-164870,65786,50137
453088000,553,-149,-346,-177771,97374,-141923
453107000,1026,267,99,-169251,88671,-434198
453126001,959,803,387,-154076,21297,-500274
453145000,-1173,2255,417,-138595,31267,-482473
453164000,-1169,3328,1085,-114656,19328,-47374
453183001,-63,2699,1843,-35664,32793,289236
453202000,640,1870,991,46656,-2213,310870
453221000,326,619,-47,35114,-10641,267419
453240000,228,-68,-1018,23251,34167,207450
453259000,827,-655,-1218,-39343,36000,98183
453278000,1324,-338,-395,-90961,31832,-59190
453297000,1389,163,0,-94564,564,-288015
453316000,1427,611,468,-87236,-59755,-500274
453335000,-950,952,473,-63328,-70259,-500274
453354000,-1453,1904,790,-59007,-21984,-277709
453373000,-868,3011,1861,31450,-30290,115206
453392000,-342,2819,1436,69954,-6381,323771
453411000,-13,1215,591,105267,11419,260717
453430000,83,956,229,134045,32519,136519
453449000,219,692,-182,127618,52198,29083
453468000,473,462,-141,98580,34473,31496
453487000,438,584,-244,74992,27526,58961
453506000,422,746,-307,62396,16213,85251
453525000,460,767,-222,52045,19267,88351
453544000,514,722,-248,46656,21938,53511
453563000,536,775,-156,44564,18809,13435
453582000,466,820,-196,39343,17511,-10992
453601000,438,916,-168,31572,14274,-8213
453620000,477,1057,-93,31129,10778,1435
453639000,405,1073,-95,31541,9526,14274
453658001,452,1123,-40,36183,9877,19312
453677000,434,1032,-56,38931,12656,17862
453696000,403,1028,-67,39129,12427,26259
453715000,485,1014,-47,41770,9465,37877
453734000,461,921,-83,43511,6412,38152
453753000,424,962,-106,44671,3877,31679
453772000,514,905,-119,47709,2625,27328
453791000,527,846,-140,48519,-3618,14045
453810000,463,907,-187,49404,-6992,11618
453829000,496,903,-206,50610,-9068,16610
453848000,496,800,-239,49236,-12000,19328
453867000,470,795,-314,49022,-13328,29954
453886000,492,737,-345,44610,-12992,36687
453905000,499,716,-372,41603,-15709,44656
453924000,519,713,-430,39312,-17099,56061
453943000,550,667,-528,34167,-18534,70320
453962001,547,543,-567,25236,-21541,85007
453981000,518,374,-633,16351,-24290,104167
454000000,484,50,-826,-14763,-22030,132961
454019001,568,-190,-899,-57419,-19450,136824
454038000,573,-361,-814,-101099,-20763,126320
454057000,472,-488,-851,-155984,4671,65297
454076000,682,-231,-390,-176091,27847,-149160
454095000,1024,326,115,-148717,18320,-500274
454114000,78,826,391,-97816,-62946,-500274
454133000,-842,3264,621,-63954,-87007,-474000
454152000,-1335,3187,1296,-28458,-62396,-29786
454171000,-582,2073,1784,3236,-42351,383190
454190000,346,1198,504,59511,-69282,330396
454209000,221,-81,-740,2137,16977,325190
454228000,431,-582,-2041,-27297,24473,111908
454247000,948,121,-647,-43572,55984,-164458
454266000,1819,226,-291,-78580,6000,-335816
454285000,198,1186,133,-84458,-45694,-353908
454304000,-1421,1679,470,-40931,-40015,-126229
454323000,-550,2318,1575,10091,-28351,64122
454342000,-118,2721,1327,81832,-15938,177404
454361000,-43,1050,283,93633,-4580,149160
454380000,6,345,-293,100854,7572,59114
454399000,118,294,-493,78488,38564,-18610
454418000,207,495,-357,55297,43740,-28595
454437000,152,661,-185,40778,49725,-11236
454456000,112,880,-148,35068,56167,9251
454475000,212,1032,-1,33374,55694,19755
454494000,212,1008,-36,33007,58793,22015
454513000,339,1002,-56,32290,51419,18061
454532000,348,1028,-131,37221,44885,10351
454551000,353,1060,-215,38305,37145,11221
454570000,433,1025,-240,40610,29435,15053
454589000,412,913,-334,41618,21740,13435
454608000,342,977,-408,42137,20519,7511
454627000,418,1053,-374,42885,19145,20900
454646000,495,966,-394,45908,12824,35053
454665000,488,857,-499,46824,8534,40687
454684000,510,876,-472,48335,3404,37435
454703000,500,827,-557,49954,4503,33893
454722000,521,813,-554,49786,2656,31099
454741000,505,792,-562,47969,3358,35404
454760000,497,790,-552,48458,183,36458
454779000,481,734,-565,45740,-885,39740
454798000,487,710,-577,44122,-1541,39099
454817000,504,722,-578,40396,-3282,38702
454836000,497,735,-595,38900,-2763,41938
454855000,480,638,-654,34595,-870,54809
454874000,519,588,-678,27404,-1114,57145
454893000,551,512,-730,20519,-1404,61938
454912000,614,421,-785,10641,-5267,78366
454931000,637,403,-862,-931,-7480,102931
454950000,595,308,-920,-17618,-11587,135801
454969000,591,14,-934,-47709,-15236,169801
454988000,603,-187,-937,-87358,-12534,186259
455007000,636,-315,-919,-127328,-9312,177221
455026000,613,-318,-874,-167603,-335,144244
455045000,669,-316,-607,-202625,22488,22076
455064000,900,-125,-262,-207954,26702,-230091
455083000,1243,395,303,-184564,-8335,-500274
455102000,-462,1468,565,-151221,-56503,-500274
455121000,-1370,2837,880,-124503,-117984,-295374
455140000,-1093,3064,1568,-58458,-73755,84030
455159000,145,2133,1691,-15068,-40824,396000
455178000,384,822,313,19679,-45404,285068
455197000,16,-147,-612,10748,6091,199893
455216000,366,-319,-1847,-32244,57908,-18671
455235000,922,310,-270,-64687,38732,-162229
455254000,1578,282,-47,-94335,-7847,-298091
455273000,33,660,171,-108244,-44106,-372839
455292000,-1289,1003,259,-95297,-9526,-160320
455311000,-260,2230,1216,-44290,-2396,9603
455330000,-25,2333,1204,22366,7328,182977
455349000,190,1129,344,52595,24000,137358
455368000,155,811,-12,77175,45038,47984
455387000,198,836,-98,78458,72076,-11435
455406000,286,557,-35,55007,68824,-13282
455425000,259,756,-6,45816,68412,-12274
455444000,206,1054,-69,41022,71572,16992
455463000,281,1120,19,41099,73251,46931
455482000,426,1019,80,46335,72183,44351
455501000,388,951,49,49816,68290,23206
455520001,347,955,-30,47022,66167,12244
455539000,380,929,-67,44045,66015,6900
455558000,480,909,-64,39374,59511,8809
455577000,482,880,-164,36183,52519,14320
455596000,349,833,-272,34137,51709,6610
455615000,324,847,-267,27251,60076,-7923
455634000,311,948,-217,23938,71053,-16427
455653000,451,918,-113,16641,76045,-9267
455672000,466,907,-73,14274,70702,6961
455691000,374,965,-138,12503,62839,27251
455710000,317,956,-232,10549,68045,41694
455729000,479,885,-160,10000,70641,23267
455748000,680,938,-33,12870,60916,15160
455767004,593,950,-90,13145,44748,32503
455786000,479,969,-292,12534,40091,69190
455805000,596,742,-324,8503,38045,85114
455824000,675,587,-249,3770,35755,75572
455843000,759,568,-340,-1068,29419,65221
455862000,692,360,-337,-19770,18229,70671
455881000,605,239,-523,-37083,19160,80656
455900000,577,26,-458,-70076,17954,68702
455919000,533,-152,-479,-100946,31480,29358
455938000,484,-255,-328,-135129,37816,-39541
455957000,496,-154,-168,-164229,47160,-156900
455976000,556,107,-22,-176290,46381,-323328
455995000,754,423,310,-171557,2900,-500274
456014000,-435,1220,643,-149404,-61007,-500274
456033000,-750,2563,1116,-136213,-92977,-230076
456052000,-838,3182,2180,-74274,-61526,78305
456071000,-400,2820,1484,-10564,-4290,287511
456090000,-260,1732,546,20961,39572,261404
456109000,-118,1193,-34,50809,73053,176961
456128000,192,754,154,66809,78259,73603
456147000,264,518,-18,42106,84519,76305
456166000,529,71,-177,10549,64671,108595
456185002,562,-524,-427,-36580,49145,123984
456204000,537,-831,-746,-91022,46641,32458
456223000,594,-10,-245,-98244,53053,-195099
456242000,1177,474,442,-81755,8946,-500274
456261000,-512,703,397,-76015,-29954,-500274
456280000,-895,1750,900,-101419,-55679,-207053
456299002,-1172,2962,2009,-20305,-36916,107526
456318000,-414,2656,1412,7801,16412,274717
456337000,-244,1294,599,35740,42702,217771
456356000,-134,965,184,69221,72687,86977
456375000,316,475,41,52702,71145,33221
456394000,388,468,207,33755,47160,16961
456413000,233,750,244,29557,31832,38152
456432000,241,896,339,31786,24045,70061
456451000,255,872,360,37618,15938,78213
456470000,245,828,385,38000,14015,60870
456489000,240,890,343,37786,13557,37938
456508000,250,982,418,34534,9236,30931
456527000,260,1031,397,32183,8839,41755
456546000,283,1093,403,34885,3725,54503
456565000,344,1054,347,38351,2580,62702
456584000,381,927,255,41770,-702,56778
456603000,424,833,204,41404,-3328,47541
456622000,487,866,218,41557,-11923,39053
456641000,465,908,178,40763,-18656,44946
456660000,506,901,155,40015,-24290,53770
456679000,523,863,95,38198,-29954,50549
456698000,565,871,95,37114,-38167,42702
456717000,592,876,71,35618,-47679,35297
456736000,634,922,51,35358,-57969,34458
456755000,682,845,9,33694,-67267,40580
456774000,703,797,-97,32931,-79038,47465
456793000,707,814,-115,30870,-93022,58534
456812000,634,779,-176,28854,-101343,68992
456831000,580,643,-267,19312,-104290,69786
456850000,514,516,-296,4229,-105786,70442
456869000,467,331,-322,-18000,-101954,75480
456888000,377,184,-405,-50229,-94045,80167
456907000,325,-47,-451,-91404,-74412,61603
456926000,442,-13,-348,-120717,-46000,-52381
456945000,619,446,-7,-114167,-25145,-282824
456964000,1000,647,445,-75022,-65679,-500274
456983000,-387,1320,485,-56183,-110396,-500274
457002000,-1659,2283,646,-66335,-121297,-222274
457021000,-1119,2682,1813,21709,-77022,151267
457040000,-80,2654,1663,46961,-42503,333160
457059000,23,1608,556,85816,-38274,210916
457078000,-214,1391,209,149541,-9450,90351
457097000,93,569,-303,131908,-4259,58900
457116000,426,208,-186,97740,-10748,115541
457135000,411,79,-706,65083,-18900,145816
457154000,484,-138,-829,20748,-25160,182778
457173000,699,-377,-918,-36427,-10916,146351
457192000,957,100,-562,-57465,-7038,-40381
457211000,1097,854,29,-34259,-21206,-324320
457230000,850,845,233,-14015,-77938,-500274
457249000,-1015,1237,172,-320,-67740,-440824
457268000,-1349,2579,687,12091,-6717,-54717
457287000,-793,2857,1297,78106,1190,271068
457306000,-46,1809,439,100305,5603,284091
457325000,-5,1115,-7,140351,8198,189801
457344000,287,362,-425,158534,23908,19328
457363000,467,23,-441,119969,14793,-16580
457382000,118,461,-468,98595,17450,-24519
457401000,135,683,-438,78809,18229,33022
457420000,205,715,-281,70564,16809,61007
457439001,313,666,-312,60229,17053,49175
457458000,279,691,-306,59160,15633,11816
457477000,233,753,-322,50076,15022,-5709
457496000,242,928,-304,48473,9145,18305
457515000,243,980,-352,46183,1267,53893
457534000,312,875,-352,44030,-5450,69038
457553000,353,682,-404,42335,-7938,49221
457572000,360,674,-474,40091,-6091,15923
457591000,356,780,-487,36778,-4381,10870
457610000,332,775,-551,33282,-2076,25435
457629000,347,699,-577,23541,-1022,41938
457648000,391,657,-566,18198,-1816,57435
457667000,429,593,-565,9160,-5908,64229
457686000,441,575,-626,1587,-7908,78244
457705000,486,509,-612,-14290,-14061,89099
457724000,449,420,-668,-29190,-12656,110015
457743000,469,353,-678,-47053,-11145,121816
457762000,495,151,-719,-71145,-6748,132061
457781000,447,-71,-819,-102061,2427,130122
457800000,468,-285,-837,-145786,9633,115893
457819000,486,-238,-747,-181129,25435,85129
457838000,500,-105,-534,-216900,51007,-20641
457857000,629,301,-129,-212167,71816,-257343
457876000,1516,705,674,-186671,15312,-500274
457895000,-515,1165,599,-127053,-72610,-500274
457914000,-1349,2730,915,-99374,-114717,-500274
457933000,-2057,3045,1388,6061,-24366,-4244
457952000,-790,2624,1447,15221,10809,431221
457971000,-93,1457,786,52244,-23419,369022
457990000,-150,-147,-1296,38366,55511,374793
458009000,566,-1269,-2248,-38167,37603,161587
458028000,1165,422,-854,-82687,84137,-108442
458047000,1547,838,-11,-89358,-1496,-281419
458066000,-100,901,477,-93816,-66335,-392992
458085000,-1580,1595,376,-51083,-17221,-159572
458104000,-544,2427,1428,20824,-14458,-2366
458123000,-172,2226,923,63022,-4763,222061
458142000,93,908,-78,77435,5557,195969
458161000,210,840,-504,89786,25786,71603
458180000,408,681,-166,94839,42824,-34122
458199000,374,389,-265,63251,34290,-66992
458218000,21,667,-294,43740,34076,-37343
458237000,46,1188,-140,40671,40137,26793
458256000,239,1368,132,50809,28870,85877
458275000,335,1133,96,61862,20946,84625
458294000,342,1002,-62,75419,18732,41694
458313000,239,1007,-170,83450,20732,4900
458332000,147,1084,-167,84854,25068,13893
458351000,203,1110,-147,84213,23709,38442
458370000,256,1044,-215,86946,23038,58519
458389000,288,931,-298,90274,23770,55618
458408000,272,850,-336,91465,25801,38687
458427000,260,864,-352,91648,29358,23664
458446000,291,901,-365,89221,27664,34763
458465000,330,866,-373,86152,23984,52152
458484000,345,774,-463,84992,20687,58900
458503000,360,682,-625,83618,19435,46473
458522000,424,630,-575,81160,15160,40763
458541000,456,607,-653,77312,14564,40229
458560000,448,524,-735,67664,11648,46076
458579001,455,466,-760,57801,10106,47099
458598000,486,425,-784,46396,9358,50564
458617000,499,354,-832,37679,7312,65954
458636000,559,313,-833,22290,1541,83251
458655000,556,207,-890,5221,1923,103832
458674000,592,52,-893,-17251,656,120488
458693000,604,-105,-981,-47404,-76,132519
458712000,594,-267,-965,-78000,4671,143603
458731000,602,-419,-1022,-123740,12732,133984
458750000,595,-438,-871,-163297,16595,101007
458769000,559,-438,-797,-203190,46519,16320
458788000,790,-336,-480,-215099,56793,-195007
458807000,1186,249,109,-203282,26396,-500274
458826000,185,1605,436,-168381,-40946,-500274
458845000,-896,2583,798,-155618,-112793,-243908
458864000,-411,3305,1681,-77587,-104625,76824
458883000,84,2699,1324,-137,-44076,313160
458902000,-105,682,-760,-7221,36916,262671
458921000,229,-579,-1482,-27267,717,175083
458940000,595,-103,-1011,-54213,78595,-149145
458959000,1517,67,-361,-106946,35694,-262748
458978000,374,995,193,-114106,-25221,-282381
458997000,-766,1487,267,-81267,-7679,-129236
459016000,0,2394,1460,-18061,-20839,9923
459035000,72,2081,1234,56351,-6213,84916
459054000,231,691,36,54717,-3603,51587
459073000,100,450,-921,49190,1603,-24824
459092000,262,774,-209,45297,30854,-62351
459111000,185,858,-191,33083,34000,-32076
459130000,172,1001,159,31572,18824,4992
459149000,180,1213,71,38870,28854,37221
459168000,242,1232,11,49083,29175,56427
459187000,294,1050,-21,56748,35709,51190
459206000,286,938,-94,58106,38015,36152
459225000,291,920,-117,57038,37328,28335
459244001,222,987,-149,53190,42519,23389
459263000,251,935,-187,48152,45969,25374
459282000,270,921,-215,44198,51572,23633
459301000,324,841,-226,41526,56488,15618
459320000,325,835,-235,36152,57862,6061
459339000,310,867,-252,30793,58534,19236
459358000,342,891,-278,22900,57786,30320
459377000,433,850,-276,23221,51465,31786
459396000,436,785,-229,16259,44809,31786
459415000,394,767,-395,9725,47557,21022
459434000,494,743,-292,-198,39725,29419
459453000,412,685,-387,-8900,43007,37709
459472000,419,559,-396,-22839,45435,42213
459491000,615,627,-321,-34656,46564,45404
459510000,649,652,-267,-42732,37954,64534
459529000,548,552,-350,-54839,39664,83603
459548000,495,332,-406,-68961,51251,90534
459567000,520,391,-334,-86045,62396,64610
459586000,476,472,-341,-90763,81435,32458
459605000,519,356,-241,-103022,93175,12473
459624000,527,345,-227,-119358,100900,18198
459643000,634,228,-166,-140854,101435,30396
459662000,642,94,-195,-158870,115267,-26030
459681000,717,347,13,-154427,112549,-177893
459700000,1042,1049,346,-128900,97236,-403312
459719001,968,1654,814,-91129,7679,-500274
459738000,-567,1678,261,-118335,-27541,-251160
459757000,51,2598,1410,-97923,-17694,32259
459776000,332,2437,1425,-14656,-549,215801
459795000,746,1434,293,-2198,30488,214335
459814000,407,693,-271,4045,41328,149832
459833000,471,653,-120,26000,48381,-35236
459852000,748,702,-31,30305,43496,-130076
459871000,1171,379,131,-167,12259,-185679
459890000,279,431,15,-14442,-28748,-137450
459909000,-39,1133,301,-6137,-42961,-24946
459928000,404,1937,761,25404,-50564,65526
459947000,655,1764,907,47877,-55312,129984
459966000,499,1300,380,59770,-45572,117450
459985000,470,1178,205,74427,-50656,57984
460004000,549,1032,218,77709,-45160,32931
460023003,650,867,202,71969,-54961,30183
460042000,579,810,157,70030,-61389,39725
460061000,592,838,119,67328,-64885,59099
460080000,497,997,107,68229,-70305,90900
460099000,463,922,48,63832,-66076,126122
460118000,554,740,21,55664,-65725,137389
460137000,556,745,-55,48167,-65755,128137
460156000,579,766,-98,40213,-63801,125297
460175000,603,731,-152,30198,-59251,135603
460194000,647,609,-187,17480,-56061,135007
460213000,721,584,-188,6458,-57725,128977
460232000,730,711,-147,91,-56656,124320
460251000,761,835,-61,-3053,-55526,125282
460270000,795,841,-42,-1648,-52335,121572
460289000,813,658,-42,-2809,-51007,106885
460308000,808,623,-98,-3969,-51053,91206
460327000,770,574,-105,-9694,-47007,79511
460346000,814,497,-139,-17770,-42015,69358
460365000,817,592,-89,-20580,-42732,59374
460384000,723,555,-62,-20839,-38839,52106
460403000,678,499,-94,-24244,-29404,49786
460422000,710,450,-93,-28229,-23129,44961
460441001,690,410,-127,-35877,-19053,46687
460460000,681,359,-195,-43618,-12595,48427
460479000,610,290,-229,-56305,-5587,51160
460498000,608,124,-239,-74763,3923,44335
460517000,651,29,-256,-97496,11755,37694
460536000,715,-12,-244,-119877,21709,15389
460555000,685,75,-183,-142000,35068,-21511
460574000,834,421,64,-149496,55267,-57954
460593000,1188,787,479,-133923,57312,-119786
460612000,1562,917,645,-105145,40244,-190122
460631000,1061,1100,468,-90687,-7450,-144167
460650000,-733,227,-149,-86732,55206,-66015
460669000,229,31,832,-126106,26580,29923
460688000,1114,1880,1165,-51038,-7236,155877
460707000,1270,727,303,-22122,9923,127328
460726000,1415,-136,137,10610,-24473,-64946
460745000,1158,521,-98,2671,-19755,-147099
460764000,921,709,-62,-16091,-10412,-97389
460783000,870,647,-5,-21938,-5572,-85053
460802000,301,562,-122,-27587,17022,-51786
460821000,-26,93,191,-56854,37221,16610
460840000,716,961,740,-40290,14213,80687
460859001,1047,937,548,-8961,-580,97129
460878000,1234,569,402,22732,-12229,21740
460897000,1020,695,342,54595,-18641,-51419
460916000,728,972,289,71770,-11038,-37221
460935000,641,842,251,78885,-4503,22366
460954000,703,585,236,77312,-839,49923
460973000,845,531,236,80152,-3984,36305
460992000,868,560,199,82229,-5099,13038
461011000,797,603,144,84061,-4152,-503
461030000,827,550,128,81190,-2885,3099
461049000,871,556,65,78916,-3938,3740
461068000,834,590,19,76458,-4931,7664
461087000,884,518,41,71801,-6000,7358
461106000,848,495,40,68198,-5480,-4244
461125000,843,483,94,62946,-8091,-13099
461144000,748,564,86,60427,-8473,-19832
461163000,658,550,-29,54732,1969,-21038
461182000,704,549,-78,49358,9893,-11053
461201000,672,561,-19,48061,16748,-8946
461220001,639,535,21,43450,24809,-10106
461239000,621,469,48,32595,25496,-11160
461258000,602,466,-12,22854,28290,-22305
461277000,565,531,-2,12931,35236,-29450
461296000,446,464,-22,4152,48717,-35664
461315000,349,432,-26,-8885,62351,-38183
461334000,415,406,23,-21938,76458,-42396
461353000,421,473,62,-37389,81236,-44381
461372000,466,437,59,-53480,92183,-39541
461391000,437,331,9,-73603,101801,-46061
461410000,427,362,-5,-90320,114870,-66564
461429000,634,325,-31,-111435,121587,-62305
461448000,680,104,-98,-140213,125053,-79450
461467000,743,298,-61,-158091,129221,-153206
461486000,1003,791,226,-158030,133435,-277923
461505000,1694,1234,1037,-150793,62793,-411801
461524000,13,1307,288,-132213,89923,-301954
461543000,-330,1070,1023,-162458,51847,-18473
461562000,634,2579,2056,-67679,24351,92503
461581000,888,2334,1224,-12335,47282,168213
461600000,875,1088,697,885,79221,178854
461619000,1157,440,338,34335,35557,20763
461638000,938,583,395,32381,7374,-55816
461657000,716,672,145,8366,-7038,-19511
461676000,890,619,301,-2091,-28015,931
461695000,814,659,237,-4167,-36763,-3007
461714000,879,590,213,-5618,-35969,-45709
461733000,1106,719,447,1664,-41755,-128503
461752000,1206,1160,746,26534,-70366,-225984
461771000,143,974,375,31694,-72473,-200641
461790000,-530,482,274,-8091,-57526,-3664
461809000,313,1473,1002,21603,-61297,112366
461828000,564,1399,881,27496,-62259,180519
461847000,638,1067,708,44580,-64625,114213
461866000,551,797,570,72992,-63450,-10961
461885000,592,808,469,69435,-68183,-39984
461904000,365,1053,435,69541,-79496,-4091
461923000,230,904,270,67175,-66900,45969
461942001,375,704,306,63893,-61190,61801
461961000,429,872,357,68717,-56870,50213
461980000,415,871,302,69877,-51877,41587
461999000,403,787,275,69297,-47435,28229
462018000,407,778,245,68610,-44213,11343
462037000,513,815,256,68030,-46030,-3893
462056000,414,852,186,67160,-45969,1358
462075000,435,823,154,63679,-44580,12458
462094000,447,797,123,64061,-41496,14549
462113000,463,842,83,63328,-38122,15557
462132000,533,858,60,65786,-35480,13954
462151000,535,781,12,63251,-35129,14351
462170000,526,787,-33,60885,-34000,13282
462189000,538,767,-61,56091,-31679,18519
462208000,558,810,-44,53755,-31709,20946
462227000,566,778,-72,50534,-30809,22167
462246001,582,755,-94,47603,-31160,23709
462265000,583,715,-127,44076,-31343,22885
462284000,569,685,-199,38748,-32412,32061
462303000,600,588,-297,27267,-33083,45374
462322000,614,447,-356,12595,-38580,55770
462341000,579,334,-423,-6625,-38076,61969
462360000,533,228,-539,-33938,-37083,58564
462379000,562,70,-565,-69664,-29603,62061
462398000,545,136,-490,-101450,-22687,36717
462417000,563,13,-445,-136854,-2854,-18091
462436000,723,312,-142,-147557,14595,-150396
462455000,998,740,350,-134748,4564,-352824
462474000,532,1017,690,-116595,-50366,-500274
462493000,-629,1276,567,-100488,-45526,-328503
462512000,-445,1925,1189,-64106,-51068,-52305
462531000,-89,2372,1157,-8305,-35679,185938
462550000,290,1356,292,39770,-24213,221923
462569000,321,11,-469,16351,39603,193267
462588000,630,492,-928,-4229,36916,-11511
462607000,1016,618,52,-15587,28885,-99206
462626000,842,695,215,-33358,-13083,-158259
462645000,-225,653,243,-28671,-5664,-129633
462664002,-4,1281,479,-10961,6732,-13679
462683000,351,1489,335,-6137,-12045,112534
462702000,548,585,-11,-7786,-7541,98564
462721000,649,752,-137,1618,5160,-49114
462740000,731,920,144,5648,-4961,-137618
462759000,376,880,169,961,-20732,-155862
462778000,-296,876,152,3893,5557,-92045
462797000,102,1620,507,19816,19221,-6610
462816000,193,1628,453,56778,17312,87587
462835000,339,954,197,63419,21358,105786
462854000,400,846,-24,66351,27038,72000
462873000,456,952,26,68213,24732,46671
462892000,453,836,77,65847,19908,31984
462911000,448,878,74,64244,14473,14290
462930000,437,1049,40,67511,12992,12381
462949000,387,991,-45,68854,13038,25175
462968000,442,1013,-39,71786,12854,27984
462987000,479,1001,-59,74442,12503,31068
463006000,443,941,-97,75038,11389,26000
463025000,470,883,-110,74076,8854,19145
463044000,517,828,-240,70916,6396,14335
463063000,489,909,-379,69893,6839,10213
463082000,536,917,-409,68931,5068,18931
463101000,598,789,-472,61755,1312,21450
463120000,584,755,-497,58793,-3053,11175
463139000,585,850,-500,55007,-7587,9206
463158000,571,924,-523,54534,-10824,16335
463177000,561,813,-538,50122,-12931,23068
463196000,544,828,-507,48641,-15190,20641
463215000,540,721,-528,45145,-17007,19664
463234000,496,736,-547,41022,-17129,16671
463253000,491,766,-546,36198,-18015,22473
463272000,471,661,-595,30488,-18473,33282
463291000,479,575,-621,19053,-18045,37145
463310000,521,565,-603,8778,-20916,42534
463329000,521,483,-632,-4564,-20458,41969
463348000,510,399,-629,-23053,-21435,43511
463367000,470,464,-569,-40778,-23419,55297
463386001,419,496,-596,-60259,-19603,89068
463405000,453,390,-541,-82687,-15633,116717
463424000,520,279,-536,-107221,-6229,112381
463443000,498,187,-473,-128503,1816,76763
463462000,457,136,-433,-154244,15160,20229
463481000,439,49,-420,-187847,30916,-32519
463500000,615,420,-12,-203465,42305,-128351
463519000,978,888,533,-193450,33450,-298427
463538000,1153,1272,1259,-161358,-47786,-500274
463557000,-906,1344,717,-117099,-39343,-355251
463576000,-860,1812,1232,-51664,-22229,-51511
463595000,-424,3056,1345,37435,-11221,219114
463614000,60,1398,-273,82870,54320,285297
463633000,261,-437,-694,55587,49541,240992
463652000,637,-467,-1295,-18916,73862,10671
463671000,1340,233,-454,-74015,52000,-98595
463690000,1176,866,580,-71877,-19587,-257480
463709000,-614,895,458,-39053,-10274,-211022
463728000,-115,1918,839,-1129,-427,-45374
463747000,88,1994,862,46274,-9358,117877
463766000,313,461,-673,14488,24793,183038
463785000,782,440,-571,-7160,22687,36580
463804001,1032,810,-99,-5389,27908,-93770
463823000,544,822,231,-17893,-12885,-132610
463842000,-293,835,190,-7587,7541,-130732
463861000,-177,1585,493,17572,27465,-45908
463880000,172,2052,727,58564,22809,67419
463899000,265,1227,303,79679,29267,104687
463918000,225,819,96,85374,38732,77465
463937000,179,886,-6,84687,49450,46595
463956000,226,810,-11,77496,53083,43954
463975000,241,796,-16,67312,58641,44503
463994000,322,914,-21,64030,63129,39740
464013000,327,906,-33,62061,69541,34916
464032000,372,916,-20,59954,70381,34335
464051000,303,842,-63,54091,74702,24625
464070000,403,852,-5,48595,73893,19053
464089000,459,873,-34,43709,71572,16412
464108000,479,789,-64,36687,62854,17877
464127000,435,718,-131,27251,62305,13664
464146000,429,768,-167,17083,62458,8198
464165000,459,760,-166,8015,64931,2091
464184000,524,740,-154,-1954,66824,-1435
464203000,553,777,-111,-10274,62656,-442
464222000,457,743,-129,-17068,68458,-305
464241000,403,756,-235,-27755,73114,-7099
464260000,573,817,-128,-33923,79648,-13862
464279000,636,890,-39,-38351,74305,-4213
464298000,497,890,-143,-42122,72167,11511
464317000,484,851,-141,-45221,76061,21099
464336000,624,771,-67,-49114,74809,18992
464355000,640,784,-4,-56274,69862,14335
464374000,696,790,13,-59053,62000,11862
464393000,675,761,31,-61038,53389,4412
464412000,650,844,-5,-61923,46045,-2900
464431000,680,867,6,-61190,38641,-396
464450000,722,775,-31,-63160,27374,10656
464469000,672,586,-145,-68961,21114,24748
464488000,628,371,-233,-84687,16610,36839
464507000,560,132,-315,-108977,20229,33847
464526000,459,-62,-273,-137923,31801,-14488
464545000,685,307,62,-143160,45129,-145465
464564000,1043,989,507,-110687,34335,-374702
464583000,489,1562,787,-63923,-28931,-500274
464602000,-654,1501,845,-90290,-76946,-226000
464621000,-242,2947,1744,-15832,-76534,3465
464640000,-3,2752,1142,32931,-47954,220519
464659000,44,1179,171,31755,8061,252854
464678000,458,432,75,42015,7557,119801
464697000,674,369,-65,46870,8396,-23664
464716000,938,551,156,27984,-22167,-83267
464735000,655,534,173,18244,-49053,-125267
464754000,24,718,95,22366,-64564,-92335
464773000,216,1402,451,29923,-78534,16076
464792000,515,1723,697,54412,-91190,101374
464811000,422,1288,435,53465,-88778,131083
464830000,455,967,151,55984,-73496,61007
464849000,537,1033,171,74000,-56946,-63587
464868000,643,935,191,81954,-56854,-160213
464887000,288,402,94,75435,-60625,-223007
464906000,-304,714,155,59160,-52229,-84458
464925000,85,1844,531,71740,-57389,49755
464944000,151,1707,467,87328,-54778,175374
464963000,188,1041,52,90351,-49480,181267
464982000,318,817,106,96763,-47267,102045
465001000,301,844,-26,99816,-32091,35541
465020000,333,824,69,91893,-33618,17893
465039000,281,852,58,87603,-29053,16152
465058001,255,862,15,83450,-27465,23374
465077000,270,948,27,82992,-24564,34244
465096000,280,942,-29,85435,-18198,37603
465115000,316,863,-79,83190,-13954,34427
465134000,346,760,-131,81770,-9725,21374
465153000,383,775,-178,76229,-11770,14549
465172000,386,827,-230,74030,-10335,11465
465191000,419,794,-278,68748,-11587,14381
465210000,450,709,-328,65725,-9938,9786
465229000,457,747,-359,61862,-11816,8687
465248000,483,776,-392,58977,-10732,14916
465267000,450,728,-465,54870,-8183,18732
465286000,537,704,-471,51755,-10671,23938
465305000,571,697,-530,47328,-13343,28656
465324000,543,616,-583,39984,-14732,36610
465343000,624,575,-583,33893,-17770,46335
465362000,567,510,-683,25328,-18610,69343
465381000,575,446,-663,7114,-25526,89129
465400000,569,281,-708,-8274,-24916,104763
465419000,587,54,-742,-38564,-28946,113587
465438000,608,-37,-736,-70229,-27954,110641
465457000,524,6,-679,-102015,-25603,96641
465476000,405,50,-634,-133954,-12946,86793
465495000,354,-9,-558,-165007,6412,52198
465514000,487,41,-372,-189038,37221,-53328
465533000,846,357,-8,-180793,41099,-271862
465552000,1266,651,349,-169175,-4839,-500274
465571000,-330,1353,361,-148564,-35038,-462549
465590000,-1441,2062,450,-166625,-51129,-96610
465609004,-262,2756,1696,-82335,-41145,204488
465628000,512,2333,1197,-21328,-20519,388122
465647000,618,707,673,-11267,-28687,304992
465666000,312,-241,-1076,-9038,34320,143160
465685000,520,317,-946,-10137,31923,-104793
465704000,880,453,-239,-41603,39572,-161282
465723000,868,628,-50,-71389,-15038,-218198
465742000,27,1220,143,-55435,-15251,-135297
465761000,-249,1246,344,-44290,473,12687
465780000,412,1658,910,-20854,-14030,95816
465799000,630,1211,373,9847,-8870,107160
465818000,553,817,-142,16274,-2137,34061
465837000,594,1042,-121,37099,12076,-110488
465856000,574,958,15,42244,4641,-173068
465875000,-207,794,17,38961,14442,-124900
465894000,-101,1272,297,43496,39877,-35755
465913000,250,1892,624,70900,27190,51954
465932000,309,1367,131,91877,32656,96396
465951000,324,853,8,100198,25633,69206
465970000,331,789,-179,99832,37236,24977
465989000,371,822,-176,92595,34122,22885
466008000,437,824,-111,83038,30793,27465
466027000,404,811,-219,77679,30564,25786
466046000,382,732,-235,71114,35053,17022
466065000,331,720,-273,64717,46061,4854
466084000,410,854,-211,59175,49541,5725
466103000,511,897,-168,54473,48458,21862
466122000,504,831,-154,49557,41786,34519
466141000,419,728,-216,43587,41358,27435
466160000,407,679,-207,35160,42625,11236
466179000,536,769,-147,28671,40030,-503
466198000,533,801,-157,22610,34687,8916
466217000,439,696,-236,11374,36870,20458
466236000,502,695,-240,2625,34167,24870
466255000,628,727,-201,-3343,24305,29419
466274000,655,746,-249,-6763,21404,18977
466293000,632,688,-378,-12152,18320,6244
466312000,623,783,-332,-16427,17572,-10977
466331000,644,781,-370,-18488,21801,-20015
466350000,656,836,-320,-20091,16656,-11511
466369000,594,881,-387,-19435,18946,-1786
466388000,610,833,-366,-19358,21465,3404
466407000,613,767,-351,-18229,23328,-931
466426000,644,773,-314,-20427,19206,5236
466445000,639,684,-322,-25236,11908,30549
466464000,612,487,-426,-37755,4274,48992
466483000,629,198,-530,-59862,-3435,57450
466502000,597,-32,-593,-89832,-2595,43435
466521000,551,-22,-634,-111679,13801,-48259
466540000,995,602,-203,-95801,6427,-234503
466559000,1120,1341,164,-57175,-35877,-452625
466578000,-63,1300,-15,-39374,-62000,-346900
466597000,-664,1536,125,-89129,-57297,-59740
466616000,80,2916,1014,4458,-59603,131740
466635000,334,2308,541,21328,-62122,235847
466654000,297,1067,-143,33648,2625,214732
466673001,487,180,-669,38931,-2595,52427
466692000,722,424,-330,45328,-8641,-90427
466711000,739,826,-337,42748,-15694,-132961
466730000,440,856,-278,34534,-37007,-89633
466749002,80,783,-254,23343,-33862,-32931
466768000,272,1287,23,32229,-41068,34213
466787000,312,1604,3,48809,-38519,83908
466806000,416,1016,-219,43648,-23938,72030
466825000,494,835,-248,58198,-18091,-29312
466844000,622,958,-165,66015,-22488,-116290
466863001,171,856,-271,64290,-19725,-138778
466882000,-159,676,-304,42396,-8595,-39679
466901000,202,1370,14,50977,-10198,54625
466920000,342,1588,-16,68702,-15816,116381
466939000,328,993,-251,68854,-13236,119786
466958000,297,655,-396,69557,-10732,62045
466977000,349,710,-390,71206,-7114,11007
466996000,361,721,-404,65343,-3129,-4030
467015000,400,728,-374,59450,-5893,-1954
467034000,357,777,-419,53923,-5862,7679
467053000,352,796,-443,50702,-2809,15908
467072000,337,777,-466,48442,2030,21282
467091000,432,794,-468,46183,1969,30351
467110000,395,796,-514,44259,3969,31938
467129000,431,731,-533,40778,4458,35725
467148000,520,770,-522,40961,2259,35221
467167001,512,706,-565,38152,-15,37923
467186000,515,715,-594,35541,-2351,38030
467205000,550,631,-610,33099,-3709,34290
467224000,569,589,-643,30427,-4992,22351
467243000,560,610,-691,27770,-6106,22152
467262000,565,569,-740,22366,-7709,36427
467281000,580,518,-756,14717,-10732,55374
467300000,612,441,-794,7770,-13740,61557
467319000,635,482,-799,3206,-14748,49251
467338000,600,499,-782,442,-16580,31541
467357000,586,522,-800,-6503,-19923,31160
467376000,558,527,-789,-15862,-25465,51221
467395000,522,506,-782,-27694,-28610,85511
467414000,519,373,-799,-44687,-29114,123862
467433000,531,272,-788,-64793,-27801,150213
467452000,542,158,-855,-88595,-19893,155618
467471000,591,81,-669,-111557,-16793,141603
467490000,484,-2,-765,-137053,2702,106870
467509000,601,-105,-673,-164519,24732,9007
467528000,703,135,-435,-163633,33282,-152778
467547000,1020,545,-268,-162213,32656,-353542
467566000,1125,684,78,-151694,-34534,-500274
467585000,-147,1412,270,-159022,-77755,-280152
467604000,-1460,1713,200,-166916,-52885,26870
467623000,-382,1791,1038,-133847,-11312,325007
467642000,801,1994,905,-63068,8320,387145
467661000,611,546,400,-56854,20778,280854
467680000,438,-195,-1005,-53022,46030,81526
467699001,1010,67,-771,-84824,40625,-75664
467718000,1203,628,-104,-105603,28946,-168259
467737000,632,671,227,-119480,-33694,-237496
467756000,-280,793,300,-105450,-9816,-106763
467775000,119,1750,786,-68396,-9053,24000
467794000,408,2098,663,-16931,-6961,134854
467813000,587,1083,96,14244,14290,138931
467832000,634,792,51,37526,13648,31007
467851000,662,913,47,39679,16137,15114
467870000,592,933,-12,39679,13725,28549
467889000,646,845,5,42977,14778,32793
467908000,719,820,14,44748,11984,24946
467927000,724,887,-47,47145,8625,18595
467946001,722,833,-144,43618,9236,20931
467965000,752,772,-141,39053,8931,15984
467984000,784,743,-202,35496,5099,10351
468003000,788,750,-244,28427,2015,6152
468022000,795,747,-280,20992,-1099,4625
468041000,762,704,-306,11465,-3664,2000
468060000,740,753,-277,2854,-4671,-1526
468079000,752,825,-227,-2916,-6152,11847
468098000,736,835,-231,-7908,-7984,29832
468117000,731,793,-203,-10381,-9664,41374
468136000,703,749,-168,-13389,-11862,39267
468155000,704,736,-135,-17007,-15007,37236
468174000,697,780,-129,-19389,-19160,39557
468193000,681,771,-181,-21175,-20778,46320
468212000,709,728,-133,-23648,-23633,44320
468231000,725,756,-22,-17358,-27938,13236
468250000,731,749,-37,-10748,-30809,-15938
468269000,643,828,-85,-5496,-32977,-24824
468288000,615,874,-108,-1694,-34427,-8244
468307000,571,831,-164,1541,-32778,10122
468326000,655,773,-163,2030,-33145,17465
468345000,646,714,-243,30,-33557,16183
468364001,615,681,-328,-9496,-29725,13083
468383000,567,731,-327,-20183,-23022,21328
468402000,588,767,-250,-30045,-15755,45114
468421005,536,737,-251,-39893,-7435,70213
468440000,586,636,-210,-52687,-610,90305
468459000,604,557,-148,-58870,3419,95297
468478000,601,433,-28,-70946,3374,86152
468497000,654,354,-124,-92305,11770,59129
468516000,730,533,92,-104396,18549,32732
468535000,841,734,329,-96351,22229,4122
468554000,995,916,301,-72977,15282,-33297
468573000,1002,889,215,-45480,2870,-66458
468592000,749,287,-14,-30992,7541,-129053
468611000,-268,-771,-221,-44702,23480,-94076
468630000,326,1395,642,-28412,-5022,-44274
468649000,613,2104,96,34091,3572,121511
468668000,1140,491,140,69603,15312,145099
468687000,856,159,-79,62183,6778,54244
468706000,803,719,-288,25175,14717,78290
468725001,1237,732,-140,5404,25603,50625
468744000,1461,606,1,4442,9862,-54656
468763000,1282,354,-2,-4335,-14366,-128732
468782000,42,-336,-291,-30167,4015,-113312
468801000,392,1130,284,-37603,3801,-31160
468820000,881,1707,282,2076,-7267,87877
468839001,1286,476,79,30137,-2961,56625
468858000,1085,558,34,43145,-19969,-42427
468877000,732,1149,-65,48732,-10793,-14702
468896000,748,869,-59,50534,-1206,30885
468915000,879,571,4,49633,-3725,23236
468934000,897,651,5,52320,-9480,-2076
468953000,861,812,-22,58137,-12809,-10824
468972000,812,707,-85,60351,-10839,-9526
468991000,812,679,-82,59282,-10213,-10534
469010000,792,677,-6,62702,-11465,-14595
469029000,744,633,4,67236,-12015,-23908
469048000,729,686,39,76442,-14213,-38305
469067000,667,678,-34,80213,-14213,-42519
469086000,676,675,-77,84824,-9587,-43557
469105000,655,622,-13,88778,-10610,-44671
469124000,554,599,55,93786,-9923,-49603
469143000,513,588,14,95694,-8519,-61557
469162000,525,604,-162,92045,244,-54946
469181000,571,627,-280,88442,11267,-40763
469200000,607,552,-165,85877,15007,-32778
469219000,570,558,-89,82396,9893,-36290
469238000,485,506,-109,75954,8198,-54748
469257000,536,510,-309,61709,12259,-58595
469276000,538,636,-390,56290,21877,-55236
469295000,604,699,-301,55038,25221,-39847
469314000,523,565,-230,47923,21511,-30305
469333000,452,507,-194,35221,13007,-35969
469352000,489,620,-341,17694,17923,-44305
469371000,588,604,-461,8549,23435,-26778
469390000,561,557,-471,1557,28580,-23007
469409000,520,520,-384,-11068,27847,-10519
469428000,520,407,-392,-34732,14274,11786
469447000,547,279,-635,-61725,15740,24793
469466000,639,216,-606,-84839,16244,36931
469485000,654,170,-601,-116442,10885,49679
469504000,635,-31,-809,-152992,13557,62229
469523000,556,-223,-917,-198732,34122,21801
469542000,654,195,-685,-221114,63633,-84488
469561000,1191,584,-155,-217740,67801,-264564
469580000,1773,745,131,-214763,18610,-500274
469599000,-481,774,242,-189755,-31511,-445984
469618000,-291,2051,1212,-206549,-69083,-96702
469637000,-456,3999,2211,-29251,-59648,136748
469656000,98,2620,1645,9847,36167,253694
469675000,248,1138,115,86610,61954,105770
469694000,523,116,-170,90488,29557,31053
469713000,560,-238,-1032,18534,37541,64274
469732000,798,-60,-1140,-48427,21526,18396
469751000,1243,300,-456,-56580,16183,-124931
469770000,1131,661,92,-59236,-26442,-302809
469789000,-288,1186,202,-51297,-20076,-257145
469808000,-641,1385,631,-53312,-3099,-47587
469827000,-75,2511,1380,-7847,0,118320
469846000,224,2163,895,54213,16687,188458
469865000,286,1254,418,75312,27664,155877
469884000,356,644,59,92534,33786,32564
469903000,462,549,-78,80167,23572,-19435
469922001,477,664,-93,66717,13923,-9206
469941000,354,784,-173,54106,10320,7923
469960000,447,784,-129,45709,9969,11068
469979002,435,651,-134,39847,15404,-12580
469998000,439,864,-39,33541,13022,-23465
470017000,395,1139,0,32366,11908,-1847
470036000,308,1065,-42,31572,18885,19404
470055000,298,1020,-17,32137,27389,20366
470074000,400,988,38,35053,30732,19282
470093000,385,1051,35,39938,31847,15190
470112000,286,988,-1,39755,40870,19603
470131000,324,944,27,38106,42961,28396
470150000,389,921,50,38503,44183,34030
470169000,442,828,19,34335,39709,40641
470188000,460,795,-49,31786,30748,41709
470207000,406,819,-130,28641,31221,37984
470226000,481,807,-115,23297,28870,27511
470245000,572,791,-130,21282,23648,14839
470264000,541,837,-181,19511,16900,11572
470283000,542,881,-215,17496,13175,16854
470302000,563,873,-223,17312,12442,14793
470321000,577,888,-216,18442,10488,6854
470340001,629,888,-197,17633,4381,4809
470359000,625,918,-201,20900,-2503,14198
470378000,625,927,-245,19129,-8412,33969
470397000,629,838,-310,19022,-11618,45984
470416000,598,735,-355,16702,-13893,44809
470435000,586,638,-375,11603,-18137,50488
470454000,599,521,-403,-809,-22396,62687
470473000,614,438,-437,-15083,-27694,74244
470492000,600,312,-533,-36076,-29267,81709
470511000,590,90,-621,-60732,-28564,87603
470530000,521,-135,-700,-98702,-14549,39893
470549000,591,178,-485,-110305,1572,-102045
470568000,1174,427,-105,-103786,-5832,-356076
470587000,720,986,360,-76259,-69419,-500274
470606000,-705,1453,451,-83908,-112763,-250854
470625000,-1000,3705,1467,-18473,-80015,64030
470644003,-129,3098,1162,54335,-5923,225786
470663000,65,1532,430,73770,21587,181816
470682000,245,343,-152,102671,28290,36198
470701000,604,-202,-364,62702,5251,16931
470720000,539,192,-695,30351,27786,-11541
470739000,724,257,-521,7984,671,-43297
470758001,835,200,-329,-17038,-16000,-100824
470777000,397,416,-473,-35740,-20595,-127511
470796000,-140,735,-166,-51679,-16152,-66580
470815000,69,1436,397,-50595,-7832,4473
470834000,226,2268,737,-10030,-2931,42229
470853000,274,1959,622,34335,8900,51221
470872000,313,1226,190,54320,14610,13389
470891000,315,916,-83,58381,12366,-13648
470910000,354,760,-205,54305,11465,-6091
470929000,391,670,-307,47328,5893,13206
470948000,469,850,-226,44519,-793,21053
470967000,427,923,-200,44320,-2473,16442
470986000,369,948,-203,47404,-687,5648
471005000,371,1093,-155,51358,-3923,7954
471024000,323,1201,-225,55160,-4687,33007
471043000,344,1160,-284,60702,-2778,52809
471062001,436,1046,-313,69404,-671,47221
471081000,444,953,-350,74625,580,32183
471100000,495,1022,-377,81297,-442,25251
471119001,467,998,-388,86442,-2366,37053
471138000,477,947,-411,89877,-5145,52564
471157000,493,907,-477,93190,-8748,66717
471176000,519,865,-505,95587,-10198,71022
471195000,562,759,-525,98549,-12564,59648
471214000,606,723,-509,97648,-17618,45679
471233000,559,655,-577,95328,-19847,38412
471252000,541,604,-580,89435,-21053,30061
471271000,555,632,-561,87587,-21572,25893
471290000,493,643,-574,84000,-22870,27969
471309000,491,647,-566,78885,-22992,33603
471328000,476,556,-580,72625,-20977,34000
471347000,466,514,-603,65389,-19343,33603
471366000,432,482,-614,58152,-16687,31236
471385000,392,393,-636,45541,-13389,32427
471404000,400,274,-652,30381,-10854,38778
471423000,396,116,-736,9358,-6732,55847
471442000,392,-44,-791,-16290,-916,78656
471461000,397,-229,-917,-48549,6381,94732
471480000,693,-270,-871,-83923,17832,38244
471499000,1092,30,-696,-83114,13038,-117129
471518000,1261,305,-461,-73908,-17877,-319877
471537000,402,879,-463,-60381,-40091,-356305
471556000,-1177,1245,-567,-81114,-23938,-109984
471575000,-532,2401,221,-57725,10396,131832
471594000,500,1707,105,-14091,17328,275954
471613000,632,586,-496,-21328,13801,259526
471632000,699,-293,-1087,-19801,18396,125877
471651000,1160,-448,-1005,-30748,12992,-125374
471670000,1278,130,-633,-36885,-15984,-267694
471689000,386,755,-503,-45755,-48229,-246076
471708000,-831,1059,-664,-48229,-15984,-83603
471727000,-22,1945,117,-32045,-1175,55190
471746000,436,2002,21,13847,9862,128503
471765000,437,1138,-443,38305,2519,84610
471784005,513,427,-721,48870,9190,3633
471803000,526,534,-679,43068,6351,-21190
471822000,518,661,-622,36351,-320,-5954
471841000,545,590,-707,31099,-259,-3480
471860000,579,444,-641,27221,-2549,-26793
471879000,443,658,-635,24030,488,-38687
471898000,409,881,-585,23603,1511,-14503
471917000,454,912,-556,28488,2229,4213
471936000,424,855,-606,33526,4076,9175
471955000,546,789,-612,36809,4122,9389
471974000,552,814,-625,43572,2656,-1404
471993000,518,736,-720,46091,3038,1770
472012000,551,705,-744,45679,4213,5389
472031000,559,679,-740,50137,5312,6916
472050000,555,638,-759,48351,5160,10534
472069000,521,678,-776,50122,5786,16290
472088000,558,635,-767,48396,3465,27206
472107000,552,638,-826,49160,3206,32549
472126000,586,577,-807,49847,2213,35374
472145000,606,555,-806,49664,519,32778
472164000,578,503,-854,48961,61,30106
472183000,573,482,-876,47694,763,29480
472202000,556,442,-877,44091,305,33282
472221000,545,473,-865,39786,91,41633
472240000,553,467,-824,36183,-1893,56366
472259000,561,384,-804,31068,-5709,67099
472278000,549,354,-834,26091,-7557,66625
472297000,550,310,-826,20290,-9038,62106
472316000,539,230,-810,12335,-10778,59801
472335000,503,165,-818,-30,-12320,67221
472354000,516,7,-861,-19251,-14030,92763
472373000,542,-133,-898,-43984,-16244,111664
472392000,524,-148,-964,-66366,-14244,128809
472411000,493,-252,-998,-96442,-8778,145175
472430000,493,-393,-929,-129038,-3236,147572
472449000,554,-504,-893,-166427,8213,126916
472468000,744,-261,-714,-192793,26717,22152
472487000,1057,626,-183,-166824,24748,-195419
472506000,1064,761,-3,-131587,-1816,-451709
472525000,-339,811,-347,-114290,-8946,-416748
472544000,-926,2117,365,-97877,-19541,-57389
472563000,-149,2689,768,-30427,-18351,228961
472582000,452,1204,-125,-17068,20641,322809
472601000,418,5,-1164,1251,10656,206870
472620000,825,-646,-1348,-2809,27618,-88244
472639000,1037,-321,-1052,-46335,26732,-204198
472658000,782,588,-331,-65435,-24748,-261297
472677000,-339,1487,-511,-51251,5832,-133557
472696000,106,1397,-56,-24076,12366,41312
472715000,617,1361,110,-10824,4045,109480
472734000,614,859,-699,5068,5954,87419
472753000,805,476,-873,8106,8549,442
472772000,959,358,-745,473,946,-82213
472791000,703,624,-552,-7022,-10992,-112687
472810000,212,806,-510,-5374,-5389,-97480
472829000,168,1169,-338,5801,14015,-31709
472848000,443,1530,-149,25954,8442,31786
472867000,553,1100,-363,47832,2839,68274
472886000,510,679,-622,51694,1312,54091
472905000,568,636,-704,52412,6030,27114
472924001,618,630,-670,47572,2366,23358
472943000,602,620,-650,43251,1328,11297
472962000,627,567,-647,40564,2534,-8381
472981000,570,604,-633,39267,763,-24412
473000000,388,681,-663,37328,9206,-21450
473019000,533,689,-602,35526,9770,1374
473038000,628,790,-569,39297,3541,10549
473057000,592,760,-637,46396,-656,10931
473076000,570,649,-712,46702,-1068,5435
473095000,562,608,-764,46458,-229,-2396
473114000,571,659,-782,47068,-809,-4106
473133000,600,689,-786,48229,-3038,1328
473152000,605,610,-832,48702,-5206,8641
473171000,554,520,-845,45022,-5236,7603
473190000,535,463,-843,41175,-3145,6290
473209000,528,475,-818,36778,-2778,7221
473228000,505,488,-806,32824,-2015,12931
473247000,520,510,-784,29465,-2564,20748
473266000,525,434,-782,25435,-3282,25435
473285000,524,420,-817,21709,-2305,27190
473304000,504,356,-850,16045,-1099,31282
473323000,503,300,-872,7007,229,33404
473342000,506,203,-871,-2946,-549,41190
473361000,497,132,-945,-21114,-2045,57893
473380000,549,90,-951,-40442,-4229,84442
473399000,542,39,-997,-62854,-1847,112641
473418000,496,28,-946,-84061,1007,137679
473437000,556,-23,-904,-108793,6137,146229
473456000,608,-101,-847,-134442,12335,134274
473475000,543,-123,-774,-157129,24702,90595
473494000,484,-208,-785,-185480,43343,48152
473513000,685,-40,-616,-209312,63480,-42458
473532000,1030,547,-52,-207938,61083,-163801
473551000,1444,724,372,-198488,12793,-333358
473570000,-160,410,-25,-189282,-19343,-360503
473589000,-1097,98,-207,-219099,18259,-110167
473608000,260,2754,1161,-165786,-33145,80259
473627000,222,2396,126,-91129,-12946,278183
473646000,872,233,-338,-41419,13755,172229
473665000,981,-243,-822,-53480,41618,-108809
473684000,746,1238,-78,-72396,15816,-118885
473703000,537,1215,-26,-71603,-10687,-61465
473722000,343,864,-192,-45358,-488,-40580
473741000,522,797,52,-31709,5969,-32702
473760000,472,1552,22,5664,3221,-11022
473779000,547,1049,-272,21374,8564,38412
473798000,688,792,-336,11557,15786,9755
473817000,789,830,-168,8259,9679,-17786
473836000,659,757,-176,7129,-427,-45435
473855000,402,876,-159,10152,-106,-56152
473874000,408,994,-93,21145,10259,-27572
473893000,558,1367,-9,43694,9068,7618
473912000,566,1226,-57,69129,10641,37526
473931000,555,983,-85,82961,14946,37297
473950000,521,978,-109,92732,17786,39679
473969000,558,881,-106,98870,17755,42000
473988000,565,711,-106,100137,15847,31496
474007000,582,690,-177,100106,15007,8793
474026000,546,729,-255,99786,18442,-977
474045000,611,689,-327,93465,21099,7755
474064002,550,678,-366,87541,24427,17358
474083000,614,595,-314,81190,24351,21572
474102000,694,596,-328,75541,19267,14488
474121000,620,658,-340,75374,15206,488
474140000,659,498,-385,64488,12152,-5374
474159000,597,520,-444,58320,12992,-13374
474178000,560,549,-500,50320,15389,-12656
474197000,587,696,-427,47572,16870,-8045
474216000,619,688,-440,48198,18015,-5618
474235000,610,638,-481,43725,15435,-580
474254000,636,619,-550,40396,15389,-5374
474273000,713,660,-686,36870,12748,-1206
474292000,694,655,-731,35877,11725,6916
474311000,660,682,-724,32412,7770,32183
474330000,706,680,-778,26503,4412,67282
474349000,763,552,-939,21038,3877,91801
474368000,930,508,-822,17526,-2549,78290
474387000,883,616,-875,21984,-3419,56152
474406000,927,667,-769,24305,-10900,35251
474425000,908,664,-680,29221,-15694,14488
474444000,849,637,-667,34351,-23297,-4610
474463000,731,636,-714,40488,-24167,-12641
474482001,646,613,-708,42534,-25343,1343
474501000,529,668,-667,42961,-26870,35801
474520000,559,649,-584,42000,-26351,72961
474539002,565,476,-519,42229,-30167,79480
474558000,301,-233,-746,21786,-22000,61145
474577000,396,-1084,-1297,-31908,1282,5129
474596000,1470,-403,-1155,-63465,11358,-179312
474615000,1876,248,-390,-39175,-48961,-448641
474634000,282,523,-365,-37282,-91068,-363526
474653000,-1858,842,-728,-65541,-11587,-89129
474672000,-276,3402,593,9251,-13068,105755
474691000,366,2072,26,49847,28366,163496
474710000,484,459,-427,77938,2106,81587
474729000,445,-983,-1212,61801,1480,51618
474748000,600,-458,-1291,7022,20396,-24671
474767000,692,287,-704,-12748,9618,-23908
474786000,937,487,-515,-27099,-4564,-30488
474805000,934,704,-599,-19709,-19679,-79145
474824000,249,584,-695,-11022,-9679,-90564
474843000,-212,683,-587,-4534,21251,-41297
474862000,363,1258,-424,-6458,20396,46091
474881000,947,955,-952,931,17770,84396
474900000,1167,359,-721,15129,-12396,7908
474919000,833,218,-893,9496,-15083,-89862
474938000,273,498,-942,4381,-11145,-90625
474957000,236,815,-677,3450,4732,-27755
474976000,457,1148,-592,13267,7740,29007
474995000,634,848,-590,23114,549,39587
475014000,576,639,-636,33404,-2106,11511
475033000,516,697,-699,37282,-4946,6702
475052000,496,665,-696,38396,-5297,21465
475071000,526,598,-698,39664,-3587,25541
475090000,526,522,-699,39496,-2702,16488
475109000,513,569,-701,41465,366,1587
475128000,495,586,-700,43343,3374,-4687
475147000,505,590,-690,44412,5862,-3190
475166000,437,596,-694,48549,10305,-2992
475185000,428,648,-634,52625,14656,-5389
475204001,392,624,-644,55801,19190,396
475223000,441,663,-670,58595,23633,8122
475242000,473,559,-692,62641,29221,16381
475261000,442,597,-649,70778,32198,15893
475280000,393,616,-626,74824,36351,25206
475299000,406,604,-637,78000,40015,37755
475318000,519,512,-573,80824,38122,50793
475337000,490,372,-650,82824,32946,64396
475356000,479,119,-794,79786,33816,86229
475375000,575,-85,-800,69496,29328,111297
475394000,731,-184,-810,59740,27145,127022
475413000,757,-238,-935,43740,21053,110183
475432000,765,-294,-998,28198,21847,84396
475451000,940,-599,-1012,11404,23633,10122
475470000,1192,-542,-940,-1480,12839,-121328
475489000,1244,-287,-921,-7832,-9648,-216717
475508000,1166,-36,-863,-19679,-44610,-240946
475527000,543,128,-1027,-25511,-53603,-183038
475546000,-256,-47,-1104,-55893,-30335,-48366
475565000,161,154,-641,-80549,-8732,80732
475584000,793,300,-681,-66488,-2793,98656
475603000,1108,625,-913,-56473,-1618,16183
475622000,1235,675,-812,-21938,-10778,-98885
475641000,1049,330,-831,-15190,-29328,-202961
475660000,-126,182,-1010,-21801,-21038,-156030
475679005,-224,475,-736,-53312,11496,-259
475698000,516,1210,-401,-23847,19251,106732
475717000,878,883,-810,-12198,12839,107770
475736000,886,433,-715,8931,4503,35267
475755000,750,424,-799,15694,-2549,-22442
475774000,665,550,-796,15374,-9053,-20519
475793000,608,329,-822,14625,-12564,8809
475812000,506,68,-856,3511,-11587,14366
475831000,527,330,-786,-824,-9770,21572
475850000,804,513,-742,1389,-9206,26045
475869000,923,461,-730,9694,-17053,3343
475888000,577,440,-867,14305,-19893,-32366
475907000,62,198,-1004,5832,-2076,-41236
475926000,429,-85,-762,-16030,13496,11007
475945000,651,582,-667,-12351,10000,36091
475964000,789,696,-785,-4015,1770,49053
475983000,846,341,-760,-259,-6015,20213
476002000,751,528,-771,7450,-14015,-13770
476021000,607,564,-844,12167,-15358,-2595
476040000,566,197,-859,9603,-14595,16061
476059000,612,257,-827,7664,-14366,9114
476078000,599,399,-888,8274,-12748,19343
476097000,667,380,-890,10458,-13282,31603
476116000,673,315,-910,12763,-14061,32000
476135000,660,341,-944,15709,-14549,32152
476154000,681,289,-946,18381,-14839,38335
476173000,688,271,-958,19282,-16854,43312
476192000,701,235,-967,19053,-18763,50167
476211000,655,147,-995,15618,-18702,55129
476230000,610,33,-1031,8091,-16015,67633
476249000,601,-84,-1048,-5236,-13587,85541
476268000,638,-166,-1059,-20442,-9618,98656
476287000,674,-223,-1038,-34748,-8122,90183
476306000,635,-289,-1055,-51984,-4717,79343
476325000,646,-281,-1025,-73251,-1343,76061
476344003,608,-250,-984,-93557,1175,76061
476363000,569,-205,-906,-116442,5480,78366
476382000,519,-189,-846,-138488,11725,82992
476401000,508,-233,-759,-162763,20396,76458
476420000,461,-352,-732,-188015,34183,41297
476439000,629,0,-560,-198000,51145,-62885
476458000,992,526,-241,-174656,52488,-240305
476477000,1347,322,40,-168412,-8900,-480305
476496000,-249,659,-262,-158488,-31312,-336076
476515000,-613,1530,257,-168488,-24534,-32290
476534000,-141,2781,852,-84900,-31572,208290
476553000,552,1468,-239,-62488,18961,284519
476572000,724,779,-199,-12534,-13938,87725
476591000,635,-179,-947,18381,18106,-101862
476610000,826,221,-942,-23450,2442,-137816
476629000,617,618,-573,-34290,-9160,-158732
476648000,292,951,-593,-43648,-7297,-97816
476667000,181,612,-522,-42854,6137,-22625
476686000,438,1031,-269,-35938,16000,10015
476705000,597,1250,-315,-16641,9633,38213
476724000,732,907,-388,244,6671,11832
476743000,718,653,-519,3984,-229,-40732
476762000,563,761,-556,4625,-3725,-65557
476781000,482,763,-610,-244,-4030,-40641
476800000,455,797,-579,-2137,-977,-13511
476819001,538,896,-499,396,1114,3099
476838000,564,925,-469,6961,-396,12351
476857000,528,880,-506,12549,-244,12015
476876000,562,806,-526,14305,-519,11450
476895000,532,781,-566,15343,-1770,8351
476914000,512,706,-597,11709,381,7267
476933000,590,664,-532,8549,-1847,5664
476952000,541,695,-557,5496,-3206,-534
476971000,469,703,-551,4595,-702,-5221
476990000,526,653,-498,-320,-1557,-6763
477009000,450,684,-503,-2671,-580,-1007
477028000,383,722,-503,-4732,2717,6305
477047000,459,686,-478,-7740,5404,16839
477066000,469,631,-484,-10717,6412,18885
477085000,451,641,-482,-13633,8916,16412
477104000,459,578,-503,-19801,10534,16366
477123000,451,514,-515,-28091,11175,15954
477142000,449,539,-477,-35877,13083,14854
477161000,455,496,-470,-45740,14610,10381
477180000,495,555,-462,-53007,15633,-1007
477199000,478,560,-463,-59618,15709,-7877
477218000,439,627,-451,-67465,16961,-5847
477237000,487,712,-441,-74503,17236,16198
477256000,479,806,-388,-75374,16106,36503
477275000,496,895,-346,-75114,21938,73251
477294000,695,843,-259,-70916,23526,89969
477313000,865,861,-217,-60977,19267,67358
477332000,784,919,-260,-48412,14519,40122
477351000,677,1002,-263,-40076,14488,50259
477370000,802,1008,-251,-30809,11419,64717
477389000,893,1029,-252,-15832,5007,57007
477408000,922,1063,-334,-106,3557,44366
477427000,989,890,-423,7572,-4229,35709
477446000,921,800,-531,7450,-9908,42931
477465000,924,783,-528,4290,-18992,60259
477484001,1045,796,-494,2045,-31832,65664
477503000,976,723,-522,122,-36687,59648
477522000,846,537,-530,-8137,-37328,49068
477541001,830,344,-624,-23862,-37603,33129
477560000,831,241,-771,-48259,-31145,7053
477579000,922,359,-579,-65572,-16549,-59038
477598000,1065,804,-154,-54870,-11572,-191374
477617000,1340,680,105,-27541,-41755,-389771
477636000,139,605,-206,-26992,-68610,-309832
477655000,-1014,527,-395,-64412,-33312,-78702
477674000,41,1741,357,-36748,-25862,107801
477693000,524,1762,110,961,-18564,207160
477712000,601,374,-282,2671,-5099,139282
477731000,661,-156,-888,-12931,9816,-42351
477750000,891,739,-433,-31022,4274,-117053
477769000,798,822,-84,-45496,-27190,-180320
477788000,204,495,-104,-37022,-37603,-204458
477807000,-241,779,-125,-39908,-6458,-97709
477826000,181,1883,104,-23618,-17938,26549
477845000,486,1320,101,12335,-5007,103679
477864000,484,506,-269,28854,2778,23053
477883000,474,833,-230,29984,5832,-44702
477902000,330,956,-404,17862,10274,-15343
477921000,439,701,-365,7847,4809,8030
477940000,423,652,-205,3022,8335,-6106
477959000,410,1054,-150,11282,8366,-8412
477978000,447,1181,-116,27496,6946,15938
477997000,430,1037,-136,42381,7618,29389
478016000,413,969,-196,52320,11786,30198
478035000,410,917,-235,58473,16641,26931
478054000,460,859,-221,61984,16809,23404
478073000,451,757,-255,63389,18366,12167
478092000,423,786,-299,62396,21312,7358
478111000,484,810,-298,63038,25190,10641
478130000,507,769,-304,63526,26778,14259
478149000,442,769,-279,65862,27832,13282
478168000,492,762,-203,64748,24534,12732
478187000,491,687,-258,62671,24396,9847
478206000,521,716,-357,62427,25480,6885
478225000,434,718,-331,64687,29404,3190
478244000,462,644,-290,59160,28091,5038
478263000,444,612,-321,53480,27297,2610
478282000,473,612,-421,45374,28396,3755
478301000,478,604,-463,38793,31679,15236
478320000,490,533,-430,30106,33572,22137
478339000,531,539,-438,19328,33206,30916
478358000,581,462,-533,6503,31954,38503
478377000,604,385,-583,-9312,30198,52442
478396000,650,336,-630,-25053,29114,65541
478415000,637,277,-767,-44229,32091,88900
478434000,797,177,-764,-66320,23206,108809
478453000,864,23,-920,-95145,28763,117511
478472000,989,-230,-960,-130900,30244,72549
478491000,1042,-81,-797,-147374,37587,-47129
478510000,1249,331,-480,-152793,30564,-207954
478529000,1438,668,-88,-148396,-8137,-365419
478548000,272,1177,-168,-134702,-41053,-297633
478567000,-676,1050,-50,-163221,-39511,-108442
478586000,298,2200,840,-121725,-49908,88442
478605000,516,2237,675,-51847,-25923,178030
478624002,510,1092,-146,-43572,17251,129862
478643000,662,250,-494,-18931,13496,-54977
478662000,791,583,-468,-23755,18580,-188137
478681001,874,773,-317,-48335,-1267,-205160
478700000,-157,894,-293,-63740,-6167,-132503
478719000,-46,1050,97,-60977,17206,6412
478738000,500,2037,625,-22305,-2916,63480
478757000,537,1578,264,15236,8137,85679
478776000,638,592,-208,19541,7541,24412
478795000,681,625,-378,14717,1236,-41496
478814000,526,864,-333,3847,-977,-49725
478833000,612,944,-193,-6473,-8351,-46748
478852000,493,913,-101,-7877,-11709,-42992
478871000,345,1036,-30,-5709,-7511,-18198
478890000,397,1275,116,5251,-4610,13358
478909000,404,1250,130,23129,-488,31832
478928000,401,1055,50,33755,4824,30412
478947000,421,949,-49,38335,7465,23251
478966000,431,918,-82,40229,8625,21801
478985000,454,900,-67,41053,7694,18992
479004000,388,863,-85,42473,9328,10030
479023000,398,893,-55,41587,8900,9862
479042000,457,946,-45,44274,9282,15038
479061000,389,928,-92,46870,12519,18549
479080000,417,848,-92,46503,13496,20564
479099001,463,903,-86,48763,13435,17862
479118000,367,806,-127,47755,17557,13053
479137000,384,721,-155,42045,20916,11343
479156000,452,886,-125,42549,19343,18885
479175000,422,786,-176,38137,21893,26198
479194000,451,811,-164,38458,23206,20244
479213000,491,773,-147,35664,22885,13435
479232000,448,773,-172,31755,23297,9068
479251000,465,813,-202,28122,21847,14824
479270000,432,793,-211,23725,23862,24824
479289000,482,767,-192,18549,24045,28809
479308000,585,725,-179,18183,20824,24625
479327000,504,723,-213,9893,13877,23236
479346004,510,697,-239,3541,13618,21145
479365000,527,680,-255,-3847,9908,24274
479384000,557,639,-285,-13648,6122,32900
479403000,569,562,-315,-25862,3923,41190
479422000,599,414,-383,-42320,2748,35221
479441000,598,135,-547,-66000,16977,-11343
479460000,665,228,-552,-71435,34045,-149160
479479000,853,470,-383,-61053,35832,-333022
479498000,1168,520,-192,-66442,2732,-476473
479517000,364,1283,-341,-68045,-35801,-352809
479536000,-679,1119,-338,-118839,-37709,-89206
479555000,-142,2075,325,-81664,-10702,126015
479574000,185,2160,835,-33770,-19404,213389
479593000,527,824,-480,-62778,43083,211007
479612000,632,88,-554,-64229,19435,53419
479631000,749,615,-306,-43969,32824,-140732
479650000,975,827,-143,-56870,-3618,-217435
479669000,275,1134,135,-56732,-35389,-203679
479688000,-630,686,-58,-73587,-25770,-74106
479707000,28,2000,818,-38977,-35328,62580
479726000,22,2147,423,-1908,-14916,144106
479745000,194,1131,-3,-1129,7236,89679
479764004,407,449,-16,8000,10366,-35099
479783000,357,855,-72,3511,5709,-83541
479802000,230,1025,-87,-3603,-1572,-55923
479821001,200,695,25,-4549,-2778,-51740
479840000,189,1173,234,3511,-10488,-27175
479859000,206,1537,230,16366,-12564,23938
479878000,193,1254,62,25572,-6793,46290
479897000,269,978,-2,28427,244,29022
479916000,291,970,-76,29099,2412,10137
479935000,350,1056,-52,29984,534,9465
479954000,303,1011,-69,29801,-198,12763
479973000,416,1045,1,33511,-6213,11099
479992000,335,1096,-17,40580,-10259,8183
480011000,300,1059,-62,42381,-12717,14305
480030000,352,1087,-64,45511,-13984,22076
480049000,335,1030,-131,46916,-13893,25816
480068000,361,981,-171,47007,-14030,26335
480087000,347,969,-230,46717,-12671,24427
480106000,403,963,-241,45465,-13236,24167
480125000,408,1005,-239,45801,-16015,25190
480144000,426,995,-240,45221,-19969,31587
480163000,381,1006,-285,45007,-21679,39053
480182000,386,962,-301,43740,-23053,47572
480201000,417,951,-320,42290,-24259,51938
480220000,412,887,-358,39770,-24519,54244
480239000,433,845,-368,34717,-26748,51343
480258000,400,828,-364,28427,-27022,49389
480277000,403,821,-361,21648,-29099,51847
480296000,401,801,-371,12274,-30961,64946
480315000,443,740,-360,1297,-32076,74381
480334000,458,691,-350,-11083,-33389,80030
480353000,434,685,-411,-22687,-34183,94717
480372000,483,535,-494,-42610,-30030,110076
480391000,482,374,-479,-66961,-28091,111190
480410000,476,216,-552,-96824,-15954,89312
480429000,542,-99,-629,-141129,1725,31923
480448000,680,360,-41,-154076,11053,-132381
480467000,1222,747,449,-146137,-9908,-373969
480486000,968,1003,805,-122274,-103267,-500274
480505000,-1307,66,448,-132122,-121404,-292030
480524000,-691,2294,1549,-105496,-90946,41389
480543000,-409,3254,-335,13465,-94793,218946
480562000,328,994,1041,44396,54320,265801
480581000,139,-563,-1169,51007,36152,110213
480600000,668,705,15,-14137,19694,73206
480619000,602,1018,-17,-9114,34061,778
480638000,656,514,244,-7893,-21908,-75969
480657000,16,538,96,-18671,-13847,-67694
480676000,171,1020,-49,-36534,-12809,40320
480695000,459,986,-74,-34931,-3221,79038
480714000,812,517,-8,-47206,4000,2335
480733000,575,774,52,-48351,-11022,-111633
480752000,269,876,72,-50244,-16396,-161465
480771000,-72,226,258,-60488,-19038,-163358
480790000,-87,1481,731,-31297,-7603,-97145
480809000,32,2145,274,13480,-8167,41190
480828000,178,708,-18,25007,17389,85343
480847001,328,748,-112,7786,27236,59755
480866000,441,941,109,91,17954,44045
480885000,471,800,172,2519,6000,198
480904003,306,927,144,4641,488,-30870
480923000,208,1131,140,13099,4580,-19435
480942000,191,1089,77,15679,12290,6854
480961000,259,1023,152,21679,18000,17877
480980000,259,981,155,26977,20946,20167
480999000,253,1024,210,35526,22198,19389
481018000,262,1009,200,43496,25984,25175
481037000,245,1024,192,49480,30183,31862
481056000,260,983,210,54870,35282,38488
481075000,279,961,178,57969,38931,38977
481094000,234,885,136,60305,46442,37099
481113000,273,940,163,60595,50427,37267
481132000,272,934,122,58946,54625,46015
481151000,301,898,57,56061,55770,54503
481170000,296,821,35,53465,60519,50259
481189000,266,715,28,47206,63893,37816
481208000,385,904,94,42885,64473,34000
481227000,380,904,119,40015,56335,44274
481246000,326,740,1,30213,51145,38244
481265000,348,648,-33,19145,50427,22122
481284000,300,766,-39,12351,57618,-3267
481303000,381,774,18,1969,61587,-3664
481322000,394,783,0,-8335,57358,13725
481341000,383,800,3,-17618,51984,42824
481360000,392,704,-179,-29938,51190,55389
481379001,578,705,-84,-43267,46763,50412
481398000,620,676,-189,-53496,37526,66458
481417000,557,616,-319,-71816,35633,93603
481436000,535,298,-577,-87038,55740,102030
481455000,610,-229,-827,-129160,81374,61389
481474000,700,-144,-489,-145358,103374,-92412
481493000,1024,383,-138,-153664,98061,-285267
481512000,1397,1002,427,-152137,32442,-479648
481531000,162,1367,408,-128641,-11648,-384198
481550000,-12,2259,1400,-132015,-71893,-68412
481569000,18,3789,1694,381,-31465,136167
481588000,102,1898,358,-2778,44152,222564
481607000,359,336,-174,10152,70931,157572
481626000,1024,-4,-187,-7435,52152,27954
481645000,778,718,194,-7587,18580,-59770
481664000,671,742,355,-21877,-4885,-105725
481683000,318,367,281,-21068,-22259,-146229
481702000,106,729,558,-21694,-39755,-79923
481721000,152,1609,564,-20137,-38564,25419
481740000,227,1315,410,-11175,-8656,63984
481759000,494,841,386,-6167,-992,-6061
481778000,279,732,229,-5038,1419,-96015
481797000,133,545,187,-10137,1267,-139679
481816000,237,1019,586,-7893,-23816,-55908
481835000,136,1854,771,17847,-36870,33541
481854000,152,1461,547,43603,-26274,65908
481873000,272,939,376,52809,-21465,45419
481892000,281,970,216,54488,-19740,39862
481911000,326,949,158,49099,-14259,44885
481930000,435,826,229,48076,-19129,25816
481949000,433,906,264,50931,-24442,1969
481968000,357,991,226,54320,-28015,885
481987000,364,1011,249,56916,-30564,8839
482006000,267,922,185,57435,-27541,13862
482025000,345,1034,225,57053,-27801,24061
482044001,405,1019,199,60305,-27816,29954
482063000,391,926,164,60931,-29083,25114
482082000,364,970,138,60824,-28213,22961
482101000,358,964,101,59404,-27832,26091
482120000,375,886,89,59099,-27511,24030
482139000,390,958,70,59404,-28641,21908
482158000,354,924,40,58946,-27358,24351
482177000,370,902,20,59190,-25358,18030
482196000,353,958,-2,58916,-24152,16534
482215000,431,936,-41,57251,-24320,21770
482234000,432,892,-107,56534,-25251,20610
482253000,421,837,-169,52671,-26442,20946
482272000,428,814,-185,49343,-27541,18061
482291000,430,873,-199,45465,-29572,20396
482310000,425,950,-225,41786,-32503,40763
482329000,463,885,-270,36458,-32122,64702
482348000,457,775,-305,33404,-30900,80671
482367000,510,706,-327,21236,-36809,86152
482386000,516,588,-345,10473,-36702,94030
482405000,524,379,-517,-15832,-35862,107068
482424000,443,69,-638,-51541,-29618,108442
482443000,671,-81,-657,-93908,-13496,25709
482462000,770,428,-211,-88931,-1465,-165160
482481000,1137,912,237,-70076,-11877,-412473
482500000,389,768,183,-55099,-61282,-500274
482519002,-1180,274,-31,-126687,-80763,-195709
482538000,-667,2872,1129,-61358,-77450,116870
482557000,341,2375,548,2641,-23251,229877
482576000,185,656,-49,3343,12519,184961
482595000,555,-326,94,11145,2244,-7435
482614000,467,623,-720,-10244,27908,-57587
482633000,388,1093,200,-18885,-10473,-75694
482652000,49,875,114,-17419,6534,-42076
482671000,124,977,354,-10045,-8809,27679
482690000,265,1283,191,-7618,-6717,85557
482709000,502,518,-294,-19404,137,74564
482728000,757,448,-163,-32702,-4213,-27511
482747000,554,902,-15,-28503,-14412,-102671
482766001,347,901,85,-33541,-29160,-132748
482785000,-165,606,10,-38702,-10656,-91389
482804000,-56,1460,430,-21068,-1862,-25343
482823000,242,1882,487,11938,-2381,48198
482842000,231,920,79,27297,1938,50351
482861000,268,768,-145,22793,8061,29526
482880000,364,889,-266,10000,13816,32763
