# IKS01A3 
 
time[us],acc_x[mg],acc_y[mg],acc_z[mg],gyro_x[mdps],gyro_y[mdps],gyro_z[mdps]
47012000,1054,1,-5,-2198,-1984,-351
47031000,1050,3,-3,-1969,-1755,-213
47050000,1055,3,-14,-2015,-1297,-213
47069000,1049,0,-16,-1893,-1480,-198
47088000,1055,0,-12,-2030,-1587,-274
47107000,1049,4,-7,-2015,-1526,-198
47126000,1042,0,-4,-1786,-1358,-137
47145000,1054,0,-11,-2122,-1725,-213
47164000,1051,-1,0,-2137,-1679,-396
47183000,1049,-1,-22,-2045,-1572,-305
47202000,1049,-2,-9,-2076,-1358,-320
47221000,1052,0,1,-1877,-1664,-320
47240000,1045,-3,-4,-1984,-1679,-290
47259000,1046,-1,-14,-1938,-1511,-320
47278000,1052,1,-10,-2091,-1770,-305
47297000,1049,0,-11,-2015,-1633,-290
47316000,1046,-2,-7,-2076,-1664,-412
47335000,1053,-1,-2,-2061,-1526,-274
47354000,1052,1,-10,-2061,-1801,-91
47373000,1043,5,-3,-2045,-1633,-244
47392000,1055,6,-10,-1908,-1496,-183
47411000,1051,2,-14,-1801,-1465,-229
47430000,1053,1,-7,-1954,-1740,-412
47449001,1047,2,-7,-1816,-1786,-396
47468000,1053,0,-8,-2000,-1603,-229
47487000,1047,4,-5,-2045,-1587,-381
47506000,1050,0,0,-2106,-1954,-137
47525000,1051,0,-8,-1923,-1465,-442
47544000,1047,0,-7,-1984,-1465,-290
47563000,1055,-3,-7,-1984,-1862,-259
47582000,1047,5,-4,-1984,-1862,-366
47601000,1051,-2,-11,-2045,-1679,-381
47620000,1054,3,-10,-1893,-1541,-290
47639000,1049,0,-22,-1969,-1374,-366
47658000,1044,0,-4,-1938,-1648,-366
47677000,1056,-1,-7,-2091,-1694,-137
47696000,1053,-1,-14,-1969,-1664,-290
47715000,1051,-1,-7,-1893,-1282,-320
47734000,1056,2,-8,-2061,-1709,-427
47753000,1049,1,-10,-1938,-1557,-442
47772000,1050,2,-11,-2320,-1404,-335
47791000,1056,-3,-5,-2000,-1511,-122
47810000,1047,6,2,-2213,-1694,-366
47829000,1055,0,0,-2137,-1480,-244
47848000,1050,5,-8,-2198,-1557,-305
47867000,1043,0,-9,-2000,-1847,-366
47886000,1054,-2,-3,-2137,-1587,-351
47905000,1053,4,-6,-2045,-1251,-381
47924000,1047,-3,-11,-2061,-1938,-366
47943000,1049,1,-8,-2091,-1587,-152
47962000,1050,2,-10,-1938,-1404,-351
47981000,1050,3,-4,-1969,-1404,-259
48000000,1050,0,-6,-2183,-1648,-152
48019000,1047,5,-2,-2198,-1572,-381
48038000,1048,-1,-1,-1893,-1526,-137
48057000,1048,0,-16,-2152,-1541,-290
48076000,1051,4,-13,-2045,-1694,-305
48095000,1048,0,-13,-2183,-1465,-198
48114000,1045,1,-4,-2183,-1404,-396
48133000,1051,-2,-7,-2183,-1526,-335
48152000,1053,-4,-16,-1923,-1587,-335
48171000,1046,0,-6,-2061,-1664,-122
48190000,1049,0,-8,-2106,-1282,-167
48209000,1053,1,-16,-2091,-1572,-290
48228000,1049,3,-14,-1877,-1755,-290
48247000,1056,-3,0,-2106,-1694,-198
48266000,1052,0,-6,-2061,-1175,-427
48285000,1046,-2,-16,-1969,-1404,-198
48304000,1053,-5,-6,-1954,-1770,-366
48323000,1059,-2,0,-2137,-1633,-167
48342000,1059,-3,-11,-1938,-1328,-259
48361000,1048,-2,-8,-2015,-1633,-229
48380000,1050,3,-8,-1984,-1954,-366
48399000,1054,3,-7,-1908,-1389,-183
48418000,1052,2,-15,-2000,-1603,-274
48437000,1049,0,0,-1969,-1694,-259
48456000,1054,-4,-7,-2000,-1755,-61
48475000,1053,-5,-13,-1923,-1603,-167
48494000,1044,0,-8,-1816,-1694,-229
48513000,1051,-1,-9,-2061,-1816,-351
48532000,1047,3,-6,-1908,-1557,-335
48551000,1044,-1,-20,-1938,-1282,-381
48570000,1053,7,-12,-2152,-1557,-183
48589000,1052,1,-5,-2015,-1755,-458
48608000,1049,4,-17,-2076,-1541,-259
48627000,1053,1,-13,-2000,-1435,-335
48646000,1041,0,-22,-2061,-2000,-381
48665000,1054,4,-6,-2152,-1603,-396
48684000,1052,5,-5,-2000,-1557,-167
48703000,1043,0,-11,-2137,-1786,-412
48722000,1051,-3,-1,-1908,-1450,-320
48741000,1051,-2,-6,-2015,-1633,-366
48760000,1056,5,-9,-1908,-1541,-198
48779000,1047,-1,-9,-1984,-1557,-244
48798000,1052,-1,-8,-2015,-1832,-549
48817000,1050,1,-10,-1893,-1557,-442
48836000,1051,1,-11,-1923,-1618,-305
48855000,1054,1,-3,-1877,-1496,-320
48874000,1053,7,0,-1984,-1725,-137
48893000,1051,3,-4,-2152,-1541,-366
48912000,1056,1,-8,-2015,-1435,-396
48931000,1055,1,-5,-2076,-1496,-366
48950000,1055,-4,-9,-1969,-1541,-259
48969000,1050,0,-10,-2106,-1557,-45
48988000,1045,-2,-8,-2167,-1526,-335
49007000,1054,7,-10,-2061,-1465,-519
49026000,1060,2,-13,-1984,-1496,-412
49045000,1052,0,-8,-2061,-1450,-290
49064000,1047,1,-14,-1893,-1450,-366
49083000,1052,6,-9,-2045,-1694,-213
49102000,1055,3,0,-1969,-1435,-305
49121000,1043,3,-11,-2091,-1297,-351
49140000,1047,3,-12,-1954,-1587,-244
49159000,1052,0,-10,-2167,-1755,-396
49178000,1048,0,-6,-1984,-1251,-427
49197000,1051,0,-18,-2061,-1633,-427
49216000,1046,-3,-10,-2076,-1786,-198
49235000,1047,3,-5,-2106,-1740,-213
49254000,1051,0,0,-1893,-1358,-442
49273000,1055,2,-6,-2137,-1404,-290
49292000,1052,0,-9,-2229,-1786,-366
49311000,1053,-1,0,-1832,-1587,-335
49330000,1052,3,-17,-1770,-1404,-274
49349000,1051,4,-16,-2091,-1694,-290
49368000,1055,0,-8,-2137,-1572,-183
49387000,1051,-2,-16,-2015,-1587,-198
49406000,1049,1,-16,-2106,-1587,-427
49425001,1051,0,-14,-2061,-1526,-320
49444000,1060,5,-5,-1984,-1709,-290
49463000,1054,0,-21,-2122,-1587,-213
49482000,1050,2,-10,-1877,-1450,-259
49501000,1052,4,-9,-2061,-1633,-183
49520000,1054,3,-12,-1938,-1633,-335
49539000,1048,3,-9,-2106,-1206,-335
49558000,1048,0,-11,-2076,-1450,-167
49577000,1050,4,-9,-2000,-1740,-274
49596000,1048,-2,-11,-2061,-1450,-442
49615000,1044,-2,-9,-1908,-1496,-198
49634000,1051,0,-14,-1969,-1374,-458
49653000,1047,6,-13,-2030,-1694,-259
49672000,1048,1,-7,-1908,-1511,-442
49691000,1058,-1,-5,-2030,-1450,-427
49710000,1042,0,-4,-2244,-1862,-290
49729000,1056,4,4,-1954,-1374,-290
49748000,1052,-2,-21,-1847,-1557,-366
49767000,1055,1,-12,-1908,-1404,-335
49786000,1049,0,-19,-2030,-1603,-320
49805000,1048,1,-7,-2122,-1603,-519
49824000,1055,4,-11,-2244,-1465,-213
49843000,1049,-3,-22,-2045,-1603,-305
49862000,1051,0,-8,-2030,-1526,-412
49881000,1054,8,-9,-1938,-1480,-259
49900000,1056,-3,-9,-2183,-1541,-213
49919000,1054,-1,-19,-2061,-1526,-229
49938000,1055,2,-1,-2106,-1755,-366
49957000,1051,8,-15,-2106,-1526,-427
49976000,1051,0,-11,-2076,-1541,-259
49995000,1048,-3,2,-2229,-1587,-351
50014000,1048,0,-6,-1954,-1801,-274
50033000,1054,3,-14,-2015,-1541,-381
50052000,1048,2,-11,-2198,-1282,-427
50071000,1050,-1,-9,-1954,-1938,-458
50090000,1052,2,-10,-2213,-1801,-305
50109000,1045,3,-17,-2198,-1206,-198
50128000,1053,-4,-21,-1923,-1618,-305
50147000,1053,0,-8,-2045,-1770,-244
50166000,1051,-5,-2,-2122,-1603,-366
50185000,1051,-1,-17,-1923,-1297,-305
50204000,1046,1,-16,-2015,-2045,-305
50223000,1057,0,0,-2061,-1832,-183
50242000,1049,3,-10,-1969,-1404,-335
50261000,1050,3,-8,-2106,-1374,-167
50280000,1055,4,-11,-2000,-1480,-259
50299000,1055,2,1,-1969,-1709,-183
50318000,1049,2,-15,-2015,-1267,-259
50337000,1055,3,-14,-2167,-1480,-290
50356000,1052,-2,-6,-1984,-1664,-290
50375000,1049,1,-10,-2030,-1511,-320
50394000,1050,2,-10,-1984,-1557,-335
50413000,1048,-2,-4,-1984,-1435,-244
50432000,1053,-3,-5,-2076,-1648,-366
50451000,1055,0,-11,-1816,-1633,-381
50470000,1041,0,-8,-1938,-1511,-366
50489000,1050,-6,-5,-2106,-1465,-366
50508000,1052,-3,-14,-2091,-1633,-396
50527000,1055,1,-8,-2106,-1801,-290
50546000,1050,3,-10,-1954,-1419,-167
50565000,1055,-1,-10,-1969,-1664,-106
50584000,1051,-1,-4,-2137,-1969,-259
50603000,1049,1,-5,-1923,-1404,-335
50622000,1047,0,-16,-2015,-1526,-259
50641000,1052,2,-6,-1969,-1679,-366
50660000,1052,0,-6,-2091,-1770,-45
50679000,1052,-3,-4,-2091,-1664,-427
50698000,1049,2,-2,-1847,-1251,-366
50717000,1053,-3,-13,-1923,-1557,-244
50736000,1048,-1,-9,-1969,-1618,-335
50755000,1050,-2,-17,-2106,-1541,-396
50774000,1052,3,-16,-2030,-1435,-351
50793000,1048,5,-3,-2137,-1908,-244
50812000,1053,1,-5,-2213,-1374,-152
50831000,1053,2,-16,-2290,-1435,-335
50850000,1051,1,-7,-1984,-1679,-442
50869000,1051,-1,-8,-2152,-1679,-213
50888000,1054,3,-5,-1877,-1526,-320
50907000,1050,3,-8,-2091,-1419,-351
50926000,1045,2,-10,-2015,-1694,-167
50945000,1055,-5,-4,-2030,-1664,-259
50964000,1044,2,-7,-1984,-1664,-213
50983000,1048,3,-10,-2000,-1557,-259
51002000,1051,0,-15,-1694,-1679,-259
51021000,1047,2,-3,-1954,-1633,-305
51040000,1055,2,-14,-2152,-1419,-335
51059000,1046,2,-12,-1893,-1358,-381
51078000,1051,1,-4,-2122,-1832,-351
51097000,1052,4,-4,-1938,-1572,-305
51116000,1052,0,-13,-1938,-1358,-274
51135000,1050,-1,-19,-2183,-1618,-274
51154000,1051,1,-12,-1877,-1740,-229
51173000,1055,-1,-6,-2030,-1862,-274
51192000,1051,3,-18,-2076,-1282,-213
51211000,1053,7,-8,-1923,-1679,-137
51230000,1053,1,-4,-1908,-1618,-198
51249000,1048,-1,-9,-2167,-1404,-213
51268000,1048,-2,-8,-1908,-1618,-351
51287000,1050,0,-8,-2137,-1603,-290
51306000,1053,-1,-1,-1969,-1816,-305
51325000,1045,0,-8,-2061,-1648,-320
51344001,1049,1,-8,-2045,-1862,-244
51363000,1052,-1,-9,-2137,-1832,-198
51382000,1046,1,-7,-1969,-1389,-366
51401000,1051,2,-13,-2045,-1572,-137
51420000,1052,-2,-7,-1938,-1511,-305
51439000,1051,0,-5,-2015,-1526,-320
51458000,1054,2,-7,-2030,-1465,-381
51477000,1046,3,-16,-2000,-1541,-183
51496000,1051,0,-9,-1786,-1480,-519
51515000,1056,4,-20,-2198,-1694,-442
51534000,1052,1,-7,-2152,-1603,-213
51553000,1047,-1,-11,-1969,-1297,-503
51572000,1056,2,-12,-1984,-1496,-320
51591000,1052,-2,-12,-2076,-1893,-167
51610000,1050,1,-13,-1877,-1664,-320
51629000,1048,0,-11,-2076,-1633,-442
51648000,1048,0,0,-1908,-1435,-320
51667000,1056,-2,-5,-2091,-1603,-183
51686000,1045,1,-4,-2015,-1480,-305
51705000,1048,3,-10,-1893,-1709,-244
51724000,1048,2,-7,-2183,-1786,-274
51743000,1050,4,1,-2030,-1709,-274
51762000,1051,0,-11,-1984,-1633,-320
51781000,1055,-2,-16,-2198,-1480,-198
51800000,1051,1,-8,-2122,-1679,-274
51819000,1047,5,-9,-2106,-1664,-442
51838000,1049,5,-23,-2045,-1328,-229
51857000,1053,2,-9,-2091,-1770,-244
51876000,1053,3,-7,-2000,-1709,-366
51895000,1051,4,0,-1786,-1557,-381
51914000,1050,1,-16,-2061,-1526,-305
51933000,1050,0,0,-1969,-1725,-412
51952000,1056,1,0,-1954,-1419,-229
51971000,1053,0,-21,-1832,-1480,-519
51990000,1048,-1,-3,-2015,-1541,-366
52009000,1053,-4,-4,-2091,-1725,-412
52028000,1054,1,-9,-1984,-1511,-351
52047000,1055,0,-11,-2045,-1603,-305
52066000,1054,-2,-13,-1908,-1603,-412
52085000,1050,-2,-1,-2091,-1816,-213
52104000,1055,0,-7,-2061,-1618,-473
52123000,1046,1,-20,-1877,-1847,-183
52142000,1054,3,0,-2122,-1938,-290
52161000,1052,0,1,-2229,-1312,-244
52180000,1052,4,-20,-2045,-1389,-366
52199000,1051,5,-3,-2000,-2229,-549
52218000,1051,-1,-5,-2045,-1572,-396
52237000,1051,-1,-11,-2015,-1038,-320
52256000,1054,7,-18,-1969,-1725,-335
52275000,1051,0,-5,-2061,-1572,-366
52294000,1049,7,-17,-2198,-1312,-442
52313000,1052,0,-7,-2061,-1709,-412
52332000,1051,2,-4,-1801,-1557,-244
52351000,1053,1,-8,-1847,-1465,-274
52370000,1052,-1,-11,-1984,-1251,-229
52389000,1052,0,-14,-2015,-1618,-259
52408000,1055,-3,-13,-2000,-1694,-473
52427000,1048,1,-22,-2030,-1297,-351
52446000,1052,1,-5,-2000,-1694,-259
52465000,1049,5,-17,-2106,-1389,-412
52484000,1048,2,-8,-1908,-1633,-305
52503000,1047,1,3,-2106,-1587,-381
52522000,1050,0,-13,-1954,-1480,-229
52541000,1048,0,-4,-1893,-1633,-427
52560000,1049,1,-13,-1923,-1480,-351
52579000,1057,3,-4,-2000,-1694,-366
52598000,1052,3,0,-2000,-1618,-290
52617000,1048,-1,-11,-2183,-1450,-320
52636000,1051,-8,-6,-1923,-1893,-213
52655000,1054,-5,-4,-1938,-1511,-412
52674000,1057,-5,1,-2091,-1480,-259
52693000,1049,5,-10,-1908,-1404,-381
52712000,1048,-2,-11,-1954,-1923,-335
52731002,1056,3,-3,-2045,-1633,-320
52750000,1043,-1,-15,-2106,-1160,-442
52769000,1050,3,-15,-2030,-1893,-229
52788000,1053,-2,-4,-1862,-1725,-305
52807000,1058,3,-11,-2061,-1496,-290
52826000,1050,0,-14,-2091,-1389,-244
52845000,1047,2,-13,-1954,-1755,-442
52864000,1048,-4,-7,-2259,-1633,-274
52883000,1054,0,-10,-2122,-1465,-412
52902000,1049,-5,-16,-2061,-1603,-229
52921000,1052,0,-5,-2000,-1832,-381
52940000,1046,-1,-6,-1969,-1465,-396
52959000,1051,5,-18,-2106,-1419,-259
52978000,1047,2,-8,-1938,-1633,-167
52997000,1055,9,-8,-2030,-1648,-198
53016000,1049,5,-10,-2091,-1480,-274
53035000,1051,-1,-10,-2000,-1664,-229
53054000,1053,-2,-8,-1984,-1541,-320
53073000,1046,8,-1,-2137,-1419,-274
53092000,1052,0,-12,-2000,-2000,-412
53111000,1055,2,-15,-2366,-1496,-381
53130000,1053,4,-15,-2167,-1633,-351
53149000,1049,0,-10,-1938,-1557,-320
53168000,1053,0,-13,-1786,-1389,-305
53187000,1049,3,-16,-1908,-1496,30
53206000,1045,-3,-10,-1923,-1450,-396
53225000,1052,3,-9,-2183,-1587,-351
53244000,1053,3,-14,-2015,-1450,-244
53263000,1044,-4,-12,-1969,-1526,-244
53282000,1049,0,-3,-2183,-1816,-381
53301000,1054,-3,-7,-2000,-1389,-259
53320000,1050,1,-7,-2030,-1358,-274
53339000,1053,0,-12,-2122,-1526,-183
53358000,1047,3,-13,-2015,-1816,-320
53377000,1048,0,0,-2015,-1557,-259
53396000,1052,1,-15,-1984,-1297,-335
53415000,1054,-1,-13,-2000,-1862,-305
53434000,1049,2,1,-1908,-1664,-320
53453000,1048,-5,-10,-2152,-1419,-274
53472000,1056,0,-13,-2000,-1541,-534
53491000,1048,6,-13,-2000,-1893,-320
53510000,1047,1,0,-1908,-1511,-473
53529000,1051,2,-11,-2137,-1374,-534
53548000,1046,3,-23,-2076,-1709,-351
53567000,1053,6,-8,-1969,-1801,-183
53586000,1056,4,-5,-1969,-1557,-320
53605000,1053,5,-15,-1893,-1374,-229
53624000,1048,0,-17,-1984,-1618,-366
53643000,1052,2,-11,-1954,-1603,-274
53662000,1048,4,-19,-2167,-1312,-213
53681000,1049,0,-11,-2000,-1633,-167
53700000,1049,0,-7,-2106,-1755,-351
53719000,1053,3,-9,-2015,-1526,-167
53738000,1054,-2,-6,-1770,-1511,-305
53757000,1055,4,-12,-2061,-1541,-442
53776000,1050,5,-5,-2045,-2091,-351
53795000,1052,2,-8,-2106,-1435,-320
53814000,1052,1,-11,-2213,-1282,-244
53833000,1054,7,-15,-2030,-1801,-381
53852000,1054,-4,-5,-2076,-1740,-259
53871004,1051,-3,0,-1969,-1328,-458
53890000,1054,0,6,-2122,-1725,-320
53909000,1052,3,-9,-2045,-1770,-167
53928000,1053,-2,-2,-2045,-1450,-305
53947000,1052,-1,-13,-2030,-1404,-427
53966000,1054,-2,-5,-1801,-1679,-259
53985000,1047,0,-8,-2061,-1343,-274
54004000,1051,0,-11,-2015,-1770,-320
54023000,1046,0,-7,-2137,-1572,-244
54042000,1049,-3,-16,-2091,-1618,-473
54061000,1050,-2,-6,-2015,-1740,-335
54080000,1048,-2,-16,-2030,-1603,-427
54099000,1056,2,-7,-2106,-1465,-351
54118000,1058,1,-7,-2122,-1633,-305
54137000,1054,2,-7,-2076,-1801,-137
54156000,1051,5,-7,-2152,-1404,-213
54175000,1048,-1,-8,-1984,-1541,-351
54194000,1054,0,1,-2152,-1954,-305
54213000,1049,0,-7,-1969,-1312,-320
54232000,1052,0,-18,-2045,-1557,-259
54251000,1052,1,-5,-1938,-1664,-305
54270000,1053,-3,-7,-1938,-1572,-213
54289000,1053,6,-5,-1954,-1450,-351
54308000,1048,2,-17,-2061,-1221,-229
54327000,1044,1,-12,-1969,-1801,-351
54346000,1053,0,-6,-1832,-1725,-290
54365000,1052,-2,-8,-2091,-1389,-167
54384000,1054,-1,-9,-2030,-1450,-183
54403000,1048,5,-10,-2061,-1877,-458
54422000,1047,3,-4,-2106,-1801,-396
54441000,1050,1,-14,-2030,-1358,-290
54460000,1050,1,-4,-1923,-1801,-229
54479000,1053,3,0,-1938,-1709,-320
54498000,1058,4,-5,-1908,-1496,-366
54517000,1043,1,-24,-2122,-732,-259
54536000,1051,0,-10,-2045,-1572,-427
54555000,1050,-4,0,-2000,-2152,-229
54574000,1056,-6,-9,-2000,-1297,-519
54593000,1049,-1,-16,-2152,-1358,-412
54612000,1050,-1,-9,-2076,-1755,-229
54631000,1053,3,-4,-1969,-1725,-290
54650000,1051,3,-11,-1923,-1282,-396
54669000,1046,-4,-10,-1877,-1557,-244
54688000,1053,-6,-16,-2167,-1603,-290
54707000,1052,2,-13,-2122,-1541,-274
54726000,1052,0,-13,-2106,-1526,-259
54745000,1048,0,-8,-1893,-1389,-290
54764000,1048,-3,-9,-2000,-1358,-183
54783000,1052,1,-14,-1984,-1832,-259
54802000,1052,0,-8,-2076,-1419,-320
54821000,1050,-1,-10,-2106,-1465,-305
54840000,1053,4,-7,-1832,-1633,-274
54859000,1051,1,-12,-1969,-1526,-351
54878000,1048,-2,-7,-2167,-1541,-534
54897000,1046,-1,-15,-2290,-1557,-351
54916000,1053,7,-4,-2061,-1572,-305
54935000,1048,0,-22,-1847,-1419,-305
54954000,1045,3,1,-1893,-1694,-183
54973000,1049,-5,-10,-2122,-1954,-259
54992000,1050,7,-2,-1938,-1419,-274
55011000,1053,4,-2,-2030,-1572,-259
55030000,1052,2,-11,-2015,-1709,-229
55049000,1049,0,-11,-2030,-1648,-244
55068000,1049,0,-15,-2167,-1694,-244
55087000,1048,4,-20,-2167,-1343,-381
55106000,1053,0,-6,-2076,-1618,-351
55125000,1054,0,-13,-2091,-1740,-259
55144000,1047,-4,-8,-2045,-1694,-229
55163000,1051,-2,-5,-2061,-1251,-458
55182000,1045,2,-6,-2000,-1541,-396
55201000,1055,-1,-2,-1984,-1770,-396
55220000,1048,1,-9,-1770,-1251,-396
55239000,1043,-2,-11,-2091,-1389,-381
55258000,1054,0,-4,-1832,-2045,-427
55277000,1057,5,0,-1816,-1648,-396
55296000,1046,-7,-14,-2015,-1328,-305
55315000,1052,-2,-18,-1938,-1603,-213
55334000,1050,0,-10,-1816,-1908,-396
55353000,1055,2,-3,-1832,-1511,-320
55372000,1046,-1,-31,-1923,-977,-427
55391000,1053,-1,0,-2213,-2061,-244
55410000,1052,2,2,-1954,-1740,-259
55429000,1044,2,-16,-2091,-870,-213
55448000,1048,2,-12,-2045,-1664,-442
55467000,1047,1,5,-1893,-2030,-198
55486000,1048,0,-1,-1938,-1068,-412
55505000,1053,-3,-14,-2015,-1358,-274
55524000,1052,0,-5,-2061,-2076,-412
55543000,1046,1,-4,-2122,-1679,-351
55562000,1052,6,-21,-1893,-1221,-305
55581000,1048,-1,-13,-1877,-1526,-122
55600000,1046,3,-5,-2061,-1954,-290
55619000,1047,-4,-10,-1877,-1206,-366
55638000,1046,1,-16,-2015,-1206,-244
55657000,1048,0,-4,-1954,-1832,-213
55676000,1046,-3,-5,-1969,-1648,-366
55695000,1050,1,-10,-1954,-1389,-198
55714000,1049,-1,-10,-1954,-1511,-351
55733000,1047,4,-11,-2000,-1709,-229
55752000,1045,0,-12,-2076,-1603,-274
55771000,1050,1,-2,-2061,-1618,-106
55790000,1053,4,-15,-1969,-1221,-259
55809000,1047,-4,-12,-1969,-1419,-183
55828000,1052,0,-1,-1969,-1740,-305
55847000,1047,0,-7,-1893,-1679,-198
55866000,1053,3,-20,-1893,-1038,-366
55885000,1045,-2,-9,-1969,-1709,-305
55904000,1050,1,0,-2167,-1816,-122
55923000,1049,3,-16,-1969,-1282,-305
55942000,1047,-3,-13,-2076,-1541,-305
55961000,1048,0,-13,-1938,-1816,-442
55980000,1052,0,-11,-2015,-1725,-274
55999000,1049,2,-15,-2091,-1175,-259
56018000,1049,-3,-20,-2030,-1755,-320
